thisN,thisTrialN,thisRepN,mouse.x,mouse.y,mouse.leftButton,mouse.midButton,mouse.rightButton,mouse.time,mouse.clicked_name,trials.thisRepN,trials.thisTrialN,trials.thisN,trials.thisIndex,thisRow.t,notes,num_distr,trial.started,fixation.started,target.started,mouse.started,trial.stopped,trials.mouse.x,trials.mouse.y,trials.mouse.leftButton,trials.mouse.midButton,trials.mouse.rightButton,trials.mouse.time,trials.mouse.clicked_name,participant,session,date,expName,expVersion,psychopyVersion,frameRate,expStart,
0,0,0,[np.float64(-0.15138888888888888)],[np.float64(0.058333333333333334)],[1],[0],[0],[0.8027957919985056],['target'],0,0,0,0,0.04090158300823532,,10,0.028075458001694642,0.04090158300823532,0.04090158300823532,0.028087083002901636,0.830940500003635,[np.float64(-0.15138888888888888)],[np.float64(0.058333333333333334)],[1],[0],[0],[0.8027957919985056],['target'],Saloni,001,2025-09-29_18h05.53.161,visual search task 1,,2025.1.1,120.13058194395053,2025-09-29 18h06.00.323430 +0530,
1,0,1,[np.float64(0.42916666666666664)],[np.float64(-0.2708333333333333)],[1],[0],[0],[1.3961666250106646],['target'],1,0,1,0,0.8592203330044867,,10,0.8495176660071593,0.8592203330044867,0.8592203330044867,0.01841587500530295,2.2457336250081426,[np.float64(0.42916666666666664)],[np.float64(-0.2708333333333333)],[1],[0],[0],[1.3961666250106646],['target'],Saloni,001,2025-09-29_18h05.53.161,visual search task 1,,2025.1.1,120.13058194395053,2025-09-29 18h06.00.323430 +0530,
2,0,2,[np.float64(0.46944444444444444)],[np.float64(-0.03194444444444444)],[1],[0],[0],[1.123476958993706],['target'],2,0,2,0,2.2615097910020268,,5,2.2546595409949077,2.2615097910020268,2.2615097910020268,0.008794916997430846,3.378187624999555,[np.float64(0.46944444444444444)],[np.float64(-0.03194444444444444)],[1],[0],[0],[1.123476958993706],['target'],Saloni,001,2025-09-29_18h05.53.161,visual search task 1,,2025.1.1,120.13058194395053,2025-09-29 18h06.00.323430 +0530,
3,0,3,[np.float64(-0.4597222222222222)],[np.float64(-0.04722222222222222)],[1],[0],[0],[1.152790542008006],['target'],3,0,3,0,3.401872165995883,,10,3.3927408330055187,3.401872165995883,3.401872165995883,0.014461624989053234,4.54559908300871,[np.float64(-0.4597222222222222)],[np.float64(-0.04722222222222222)],[1],[0],[0],[1.152790542008006],['target'],Saloni,001,2025-09-29_18h05.53.161,visual search task 1,,2025.1.1,120.13058194395053,2025-09-29 18h06.00.323430 +0530,
4,0,4,[np.float64(-0.2152777777777778)],[np.float64(0.48055555555555557)],[1],[0],[0],[1.7830891659978079],['target'],4,0,4,0,4.572092791000614,,10,4.562352666005609,4.572092791000614,4.572092791000614,0.016605666998657398,6.345495415996993,[np.float64(-0.2152777777777778)],[np.float64(0.48055555555555557)],[1],[0],[0],[1.7830891659978079],['target'],Saloni,001,2025-09-29_18h05.53.161,visual search task 1,,2025.1.1,120.13058194395053,2025-09-29 18h06.00.323430 +0530,
5,0,5,[np.float64(0.4041666666666667)],[np.float64(0.42777777777777776)],[1],[0],[0],[1.148924082997837],['target'],5,0,5,0,6.372513041002094,,10,6.363116874999832,6.372513041002094,6.372513041002094,0.01749045800534077,7.512090500007616,[np.float64(0.4041666666666667)],[np.float64(0.42777777777777776)],[1],[0],[0],[1.148924082997837],['target'],Saloni,001,2025-09-29_18h05.53.161,visual search task 1,,2025.1.1,120.13058194395053,2025-09-29 18h06.00.323430 +0530,
6,0,6,[np.float64(0.4527777777777778)],[np.float64(0.14166666666666666)],[1],[0],[0],[1.008716791999177],['target'],6,0,6,0,7.528081833006581,,5,7.520987625000998,7.528081833006581,7.528081833006581,0.008770749991526827,8.529786665996653,[np.float64(0.4527777777777778)],[np.float64(0.14166666666666666)],[1],[0],[0],[1.008716791999177],['target'],Saloni,001,2025-09-29_18h05.53.161,visual search task 1,,2025.1.1,120.13058194395053,2025-09-29 18h06.00.323430 +0530,
7,0,7,[np.float64(0.09027777777777778)],[np.float64(0.42916666666666664)],[1],[0],[0],[1.0206557089986745],['target'],7,0,7,0,8.551113166002324,,5,8.542018749998533,8.551113166002324,8.551113166002324,0.0120804160105763,9.562738791006268,[np.float64(0.09027777777777778)],[np.float64(0.42916666666666664)],[1],[0],[0],[1.0206557089986745],['target'],Saloni,001,2025-09-29_18h05.53.161,visual search task 1,,2025.1.1,120.13058194395053,2025-09-29 18h06.00.323430 +0530,
8,0,8,[np.float64(0.19583333333333333)],[np.float64(-0.175)],[1],[0],[0],[1.7881924579996848],['target'],8,0,8,0,9.583623415994225,,5,9.574359250007547,9.583623415994225,9.583623415994225,0.011495042010210454,11.362611000004108,[np.float64(0.19583333333333333)],[np.float64(-0.175)],[1],[0],[0],[1.7881924579996848],['target'],Saloni,001,2025-09-29_18h05.53.161,visual search task 1,,2025.1.1,120.13058194395053,2025-09-29 18h06.00.323430 +0530,
9,0,9,[np.float64(0.2902777777777778)],[np.float64(0.19027777777777777)],[1],[0],[0],[0.9549009579932317],['target'],9,0,9,0,11.38368862500647,,5,11.3746663750062,11.38368862500647,11.38368862500647,0.011904125000000931,12.329639916002634,[np.float64(0.2902777777777778)],[np.float64(0.19027777777777777)],[1],[0],[0],[0.9549009579932317],['target'],Saloni,001,2025-09-29_18h05.53.161,visual search task 1,,2025.1.1,120.13058194395053,2025-09-29 18h06.00.323430 +0530,
10,0,10,[np.float64(-0.23055555555555557)],[np.float64(-0.013888888888888888)],[1],[0],[0],[1.0969012080022367],['target'],10,0,10,0,12.358745332996477,,10,12.348859416000778,12.358745332996477,12.358745332996477,0.019082375001744367,13.445804999995744,[np.float64(-0.23055555555555557)],[np.float64(-0.013888888888888888)],[1],[0],[0],[1.0969012080022367],['target'],Saloni,001,2025-09-29_18h05.53.161,visual search task 1,,2025.1.1,120.13058194395053,2025-09-29 18h06.00.323430 +0530,
11,0,11,[np.float64(-0.3347222222222222)],[np.float64(0.022222222222222223)],[1],[0],[0],[0.6924323330022162],['target'],11,0,11,0,13.461505750005017,,5,13.45433129099547,13.461505750005017,13.461505750005017,0.008418042008997872,14.146841291003511,[np.float64(-0.3347222222222222)],[np.float64(0.022222222222222223)],[1],[0],[0],[0.6924323330022162],['target'],Saloni,001,2025-09-29_18h05.53.161,visual search task 1,,2025.1.1,120.13058194395053,2025-09-29 18h06.00.323430 +0530,
12,0,12,[np.float64(0.04027777777777778)],[np.float64(0.2)],[1],[0],[0],[0.7946589159982977],['target'],12,0,12,0,14.179236833006144,,10,14.168845749998582,14.179236833006144,14.179236833006144,0.021853500002180226,14.96353387500858,[np.float64(0.04027777777777778)],[np.float64(0.2)],[1],[0],[0],[0.7946589159982977],['target'],Saloni,001,2025-09-29_18h05.53.161,visual search task 1,,2025.1.1,120.13058194395053,2025-09-29 18h06.00.323430 +0530,
13,0,13,[np.float64(-0.24583333333333332)],[np.float64(0.20972222222222223)],[1],[0],[0],[0.6173162499908358],['target'],13,0,13,0,14.987230415994418,,10,14.978499457996804,14.987230415994418,14.987230415994418,0.01485208299709484,15.595872250007233,[np.float64(-0.24583333333333332)],[np.float64(0.20972222222222223)],[1],[0],[0],[0.6173162499908358],['target'],Saloni,001,2025-09-29_18h05.53.161,visual search task 1,,2025.1.1,120.13058194395053,2025-09-29 18h06.00.323430 +0530,
14,0,14,[np.float64(-0.46944444444444444)],[np.float64(0.3138888888888889)],[1],[0],[0],[0.8840600419935072],['target'],14,0,14,0,15.620823290999397,,10,15.611660624999786,15.620823290999397,15.620823290999397,0.015665041995816864,16.495769250002922,[np.float64(-0.46944444444444444)],[np.float64(0.3138888888888889)],[1],[0],[0],[0.8840600419935072],['target'],Saloni,001,2025-09-29_18h05.53.161,visual search task 1,,2025.1.1,120.13058194395053,2025-09-29 18h06.00.323430 +0530,
15,0,15,[np.float64(0.16666666666666666)],[np.float64(-0.059722222222222225)],[1],[0],[0],[1.2007178330095485],['target'],15,0,15,0,16.52103462499508,,10,16.51197808299912,16.52103462499508,16.52103462499508,0.01608762500109151,17.712744040996768,[np.float64(0.16666666666666666)],[np.float64(-0.059722222222222225)],[1],[0],[0],[1.2007178330095485],['target'],Saloni,001,2025-09-29_18h05.53.161,visual search task 1,,2025.1.1,120.13058194395053,2025-09-29 18h06.00.323430 +0530,
16,0,16,[np.float64(0.2)],[np.float64(0.20416666666666666)],[1],[0],[0],[0.9506930419884156],['target'],16,0,16,0,17.737659874997917,,10,17.72839504100557,17.737659874997917,17.737659874997917,0.015538749998086132,18.679128999996465,[np.float64(0.2)],[np.float64(0.20416666666666666)],[1],[0],[0],[0.9506930419884156],['target'],Saloni,001,2025-09-29_18h05.53.161,visual search task 1,,2025.1.1,120.13058194395053,2025-09-29 18h06.00.323430 +0530,
17,0,17,[np.float64(0.06388888888888888)],[np.float64(0.08888888888888889)],[1],[0],[0],[2.2169168749969685],['target'],17,0,17,0,18.705127791006817,,10,18.69561904099828,18.705127791006817,18.705127791006817,0.016368416996556334,20.912578874995233,[np.float64(0.06388888888888888)],[np.float64(0.08888888888888889)],[1],[0],[0],[2.2169168749969685],['target'],Saloni,001,2025-09-29_18h05.53.161,visual search task 1,,2025.1.1,120.13058194395053,2025-09-29 18h06.00.323430 +0530,
18,0,18,"[np.float64(-0.08055555555555556), np.float64(-0.14027777777777778)]","[np.float64(0.11388888888888889), np.float64(0.14305555555555555)]","[1, 1]","[0, 0]","[0, 0]","[0.6347945000015898, 1.1511761250003474]","[None, 'target']",18,0,18,0,20.936307166004553,,10,20.927642082999228,20.936307166004553,20.936307166004553,0.01494983299926389,22.07888008300506,"[np.float64(-0.08055555555555556), np.float64(-0.14027777777777778)]","[np.float64(0.11388888888888889), np.float64(0.14305555555555555)]","[1, 1]","[0, 0]","[0, 0]","[0.6347945000015898, 1.1511761250003474]","[None, 'target']",Saloni,001,2025-09-29_18h05.53.161,visual search task 1,,2025.1.1,120.13058194395053,2025-09-29 18h06.00.323430 +0530,
19,0,19,[np.float64(-0.06388888888888888)],[np.float64(-0.21388888888888888)],[1],[0],[0],[0.8256732919981005],['target'],19,0,19,0,22.09514304100594,,5,22.088300290997722,22.09514304100594,22.09514304100594,0.009244417000445537,22.9140331660019,[np.float64(-0.06388888888888888)],[np.float64(-0.21388888888888888)],[1],[0],[0],[0.8256732919981005],['target'],Saloni,001,2025-09-29_18h05.53.161,visual search task 1,,2025.1.1,120.13058194395053,2025-09-29 18h06.00.323430 +0530,
20,0,20,[np.float64(-0.45555555555555555)],[np.float64(0.25972222222222224)],[1],[0],[0],[0.9203397909877822],['target'],20,0,20,0,22.93447108300461,,5,22.925560625008075,22.93447108300461,22.93447108300461,0.01139745899126865,23.84597300000314,[np.float64(-0.45555555555555555)],[np.float64(0.25972222222222224)],[1],[0],[0],[0.9203397909877822],['target'],Saloni,001,2025-09-29_18h05.53.161,visual search task 1,,2025.1.1,120.13058194395053,2025-09-29 18h06.00.323430 +0530,
21,0,21,[np.float64(-0.17916666666666667)],[np.float64(-0.4666666666666667)],[1],[0],[0],[1.6898470839951187],['target'],21,0,21,0,23.86601545799931,,5,23.85737420800433,23.86601545799931,23.86601545799931,0.011269791997619905,25.547275290999096,[np.float64(-0.17916666666666667)],[np.float64(-0.4666666666666667)],[1],[0],[0],[1.6898470839951187],['target'],Saloni,001,2025-09-29_18h05.53.161,visual search task 1,,2025.1.1,120.13058194395053,2025-09-29 18h06.00.323430 +0530,
22,0,22,[np.float64(-0.30972222222222223)],[np.float64(0.1486111111111111)],[1],[0],[0],[0.8551724999997532],['target'],22,0,22,0,25.567364707996603,,5,25.55841870799486,25.567364707996603,25.567364707996603,0.011017083001206629,26.413663915998768,[np.float64(-0.30972222222222223)],[np.float64(0.1486111111111111)],[1],[0],[0],[0.8551724999997532],['target'],Saloni,001,2025-09-29_18h05.53.161,visual search task 1,,2025.1.1,120.13058194395053,2025-09-29 18h06.00.323430 +0530,
23,0,23,[np.float64(0.24583333333333332)],[np.float64(0.28055555555555556)],[1],[0],[0],[0.7886685830017086],['target'],23,0,23,0,26.43389883299824,,5,26.4256477500021,26.43389883299824,26.43389883299824,0.011853082993184216,27.214385540995863,[np.float64(0.24583333333333332)],[np.float64(0.28055555555555556)],[1],[0],[0],[0.7886685830017086],['target'],Saloni,001,2025-09-29_18h05.53.161,visual search task 1,,2025.1.1,120.13058194395053,2025-09-29 18h06.00.323430 +0530,
24,0,24,[np.float64(0.45694444444444443)],[np.float64(0.3902777777777778)],[1],[0],[0],[1.89334058399254],['target'],24,0,24,0,27.24646408300032,,10,27.23600637499476,27.24646408300032,27.24646408300032,0.021467917002155446,29.129387124994537,[np.float64(0.45694444444444443)],[np.float64(0.3902777777777778)],[1],[0],[0],[1.89334058399254],['target'],Saloni,001,2025-09-29_18h05.53.161,visual search task 1,,2025.1.1,120.13058194395053,2025-09-29 18h06.00.323430 +0530,
25,0,25,[np.float64(-0.20416666666666666)],[np.float64(0.11944444444444445)],[1],[0],[0],[0.8853762499929871],['target'],25,0,25,0,29.15378700000292,,10,29.144734165995033,29.15378700000292,29.15378700000292,0.015223208989482373,30.030162124996423,[np.float64(-0.20416666666666666)],[np.float64(0.11944444444444445)],[1],[0],[0],[0.8853762499929871],['target'],Saloni,001,2025-09-29_18h05.53.161,visual search task 1,,2025.1.1,120.13058194395053,2025-09-29 18h06.00.323430 +0530,
26,0,26,[np.float64(0.375)],[np.float64(0.4513888888888889)],[1],[0],[0],[1.024546000000555],['target'],26,0,26,0,30.046042750007473,,5,30.03898237500107,30.046042750007473,30.046042750007473,0.008696791002876125,31.063604291004594,[np.float64(0.375)],[np.float64(0.4513888888888889)],[1],[0],[0],[1.024546000000555],['target'],Saloni,001,2025-09-29_18h05.53.161,visual search task 1,,2025.1.1,120.13058194395053,2025-09-29 18h06.00.323430 +0530,
27,0,27,[np.float64(-0.35555555555555557)],[np.float64(-0.06805555555555555)],[1],[0],[0],[0.9381746250001015],['target'],27,0,27,0,31.08436383299704,,5,31.075394291008706,31.08436383299704,31.08436383299704,0.011637000003247522,32.01362916600192,[np.float64(-0.35555555555555557)],[np.float64(-0.06805555555555555)],[1],[0],[0],[0.9381746250001015],['target'],Saloni,001,2025-09-29_18h05.53.161,visual search task 1,,2025.1.1,120.13058194395053,2025-09-29 18h06.00.323430 +0530,
28,0,28,[np.float64(0.1875)],[np.float64(0.35)],[1],[0],[0],[1.5055410420027329],['target'],28,0,28,0,32.03439920800156,,5,32.024913916000514,32.03439920800156,32.03439920800156,0.011155458996654488,33.53052541600482,[np.float64(0.1875)],[np.float64(0.35)],[1],[0],[0],[1.5055410420027329],['target'],Saloni,001,2025-09-29_18h05.53.161,visual search task 1,,2025.1.1,120.13058194395053,2025-09-29 18h06.00.323430 +0530,
29,0,29,[np.float64(-0.2152777777777778)],[np.float64(-0.30833333333333335)],[1],[0],[0],[1.3210838329978287],['target'],29,0,29,0,33.551238707994344,,5,33.542215708002914,33.551238707994344,33.551238707994344,0.011559249993297271,34.8633683329972,[np.float64(-0.2152777777777778)],[np.float64(-0.30833333333333335)],[1],[0],[0],[1.3210838329978287],['target'],Saloni,001,2025-09-29_18h05.53.161,visual search task 1,,2025.1.1,120.13058194395053,2025-09-29 18h06.00.323430 +0530,
30,0,30,[np.float64(-0.20694444444444443)],[np.float64(-0.43333333333333335)],[1],[0],[0],[2.1124856670066947],['target'],30,0,30,0,34.8950262080034,,10,34.88409716599563,34.8950262080034,34.8950262080034,0.020600750009180047,36.996628791006515,[np.float64(-0.20694444444444443)],[np.float64(-0.43333333333333335)],[1],[0],[0],[2.1124856670066947],['target'],Saloni,001,2025-09-29_18h05.53.161,visual search task 1,,2025.1.1,120.13058194395053,2025-09-29 18h06.00.323430 +0530,
31,0,31,[np.float64(0.09722222222222222)],[np.float64(0.30277777777777776)],[1],[0],[0],[1.050189457993838],['target'],31,0,31,0,37.02318341600767,,10,37.01357308300794,37.02318341600767,37.02318341600767,0.016807209001854062,38.06381125000189,[np.float64(0.09722222222222222)],[np.float64(0.30277777777777776)],[1],[0],[0],[1.050189457993838],['target'],Saloni,001,2025-09-29_18h05.53.161,visual search task 1,,2025.1.1,120.13058194395053,2025-09-29 18h06.00.323430 +0530,
32,0,32,[np.float64(0.3111111111111111)],[np.float64(0.009722222222222222)],[1],[0],[0],[1.1480799169949023],['target'],32,0,32,0,38.09147716600273,,10,38.081686999998055,38.09147716600273,38.09147716600273,0.017733000000589527,39.22981345800508,[np.float64(0.3111111111111111)],[np.float64(0.009722222222222222)],[1],[0],[0],[1.1480799169949023],['target'],Saloni,001,2025-09-29_18h05.53.161,visual search task 1,,2025.1.1,120.13058194395053,2025-09-29 18h06.00.323430 +0530,
33,0,33,[np.float64(0.005555555555555556)],[np.float64(0.10833333333333334)],[1],[0],[0],[0.9176331669877982],['target'],33,0,33,0,39.25553675000265,,10,39.24614316600491,39.25553675000265,39.25553675000265,0.016219791999901645,40.1638159580034,[np.float64(0.005555555555555556)],[np.float64(0.10833333333333334)],[1],[0],[0],[0.9176331669877982],['target'],Saloni,001,2025-09-29_18h05.53.161,visual search task 1,,2025.1.1,120.13058194395053,2025-09-29 18h06.00.323430 +0530,
34,0,34,[np.float64(-0.11805555555555555)],[np.float64(0.4361111111111111)],[1],[0],[0],[1.3084581659932155],['target'],34,0,34,0,40.17961262499739,,5,40.172750291007105,40.17961262499739,40.17961262499739,0.008794291992671788,41.48129420800251,[np.float64(-0.11805555555555555)],[np.float64(0.4361111111111111)],[1],[0],[0],[1.3084581659932155],['target'],Saloni,001,2025-09-29_18h05.53.161,visual search task 1,,2025.1.1,120.13058194395053,2025-09-29 18h06.00.323430 +0530,
35,0,35,[np.float64(-0.044444444444444446)],[np.float64(0.3638888888888889)],[1],[0],[0],[0.7535275830014143],['target'],35,0,35,0,41.50283054099418,,5,41.493596875006915,41.50283054099418,41.50283054099418,0.012147292000008747,42.247187083004974,[np.float64(-0.044444444444444446)],[np.float64(0.3638888888888889)],[1],[0],[0],[0.7535275830014143],['target'],Saloni,001,2025-09-29_18h05.53.161,visual search task 1,,2025.1.1,120.13058194395053,2025-09-29 18h06.00.323430 +0530,
36,0,36,[np.float64(0.029166666666666667)],[np.float64(0.12638888888888888)],[1],[0],[0],[1.0809321249980712],['target'],36,0,36,0,42.2768692499958,,10,42.266511583002284,42.2768692499958,42.2768692499958,0.01919366700167302,43.34749204100808,[np.float64(0.029166666666666667)],[np.float64(0.12638888888888888)],[1],[0],[0],[1.0809321249980712],['target'],Saloni,001,2025-09-29_18h05.53.161,visual search task 1,,2025.1.1,120.13058194395053,2025-09-29 18h06.00.323430 +0530,
37,0,37,[np.float64(-0.27361111111111114)],[np.float64(0.21805555555555556)],[1],[0],[0],[0.7492505410045851],['target'],37,0,37,0,43.37416887500149,,10,43.36477441599709,43.37416887500149,43.37416887500149,0.0171390000032261,44.11407858300663,[np.float64(-0.27361111111111114)],[np.float64(0.21805555555555556)],[1],[0],[0],[0.7492505410045851],['target'],Saloni,001,2025-09-29_18h05.53.161,visual search task 1,,2025.1.1,120.13058194395053,2025-09-29 18h06.00.323430 +0530,
38,0,38,[np.float64(-0.3416666666666667)],[np.float64(-0.10416666666666667)],[1],[0],[0],[1.2596712079975987],['target'],38,0,38,0,44.1295107909973,,5,44.12269225000637,44.1295107909973,44.1295107909973,0.00848412499180995,45.38243362499634,[np.float64(-0.3416666666666667)],[np.float64(-0.10416666666666667)],[1],[0],[0],[1.2596712079975987],['target'],Saloni,001,2025-09-29_18h05.53.161,visual search task 1,,2025.1.1,120.13058194395053,2025-09-29 18h06.00.323430 +0530,
39,0,39,[np.float64(-0.027777777777777776)],[np.float64(-0.18194444444444444)],[1],[0],[0],[1.5123278749961173],['target'],39,0,39,0,45.41111712499696,,10,45.40136933300528,45.41111712499696,45.41111712499696,0.018797374999849126,46.91374287499639,[np.float64(-0.027777777777777776)],[np.float64(-0.18194444444444444)],[1],[0],[0],[1.5123278749961173],['target'],Saloni,001,2025-09-29_18h05.53.161,visual search task 1,,2025.1.1,120.13058194395053,2025-09-29 18h06.00.323430 +0530,
40,0,40,[np.float64(-0.09444444444444444)],[np.float64(0.07916666666666666)],[1],[0],[0],[1.0157249170006253],['target'],40,0,40,0,46.94016820800607,,10,46.93092895799782,46.94016820800607,46.94016820800607,0.0170476659986889,47.946705791007844,[np.float64(-0.09444444444444444)],[np.float64(0.07916666666666666)],[1],[0],[0],[1.0157249170006253],['target'],Saloni,001,2025-09-29_18h05.53.161,visual search task 1,,2025.1.1,120.13058194395053,2025-09-29 18h06.00.323430 +0530,
41,0,41,"[np.float64(-0.39444444444444443), np.float64(-0.3958333333333333)]","[np.float64(-0.10416666666666667), np.float64(0.35833333333333334)]","[1, 1]","[0, 0]","[0, 0]","[1.3007351249980275, 2.0182414169976255]","[None, 'target']",41,0,41,0,47.97257966600591,,10,47.96292729099514,47.97257966600591,47.97257966600591,0.016097707994049415,49.98121283300861,"[np.float64(-0.39444444444444443), np.float64(-0.3958333333333333)]","[np.float64(-0.10416666666666667), np.float64(0.35833333333333334)]","[1, 1]","[0, 0]","[0, 0]","[1.3007351249980275, 2.0182414169976255]","[None, 'target']",Saloni,001,2025-09-29_18h05.53.161,visual search task 1,,2025.1.1,120.13058194395053,2025-09-29 18h06.00.323430 +0530,
42,0,42,[np.float64(0.4638888888888889)],[np.float64(0.40555555555555556)],[1],[0],[0],[2.1183297499956097],['target'],42,0,42,0,50.00515770800121,,10,49.996416166002746,50.00515770800121,50.00515770800121,0.015059833007398993,52.114795540997875,[np.float64(0.4638888888888889)],[np.float64(0.40555555555555556)],[1],[0],[0],[2.1183297499956097],['target'],Saloni,001,2025-09-29_18h05.53.161,visual search task 1,,2025.1.1,120.13058194395053,2025-09-29 18h06.00.323430 +0530,
43,0,43,[np.float64(0.27361111111111114)],[np.float64(-0.17916666666666667)],[1],[0],[0],[1.2237840829911875],['target'],43,0,43,0,52.130445375005365,,5,52.12353483300831,52.130445375005365,52.130445375005365,0.008617333005531691,53.347392750001745,[np.float64(0.27361111111111114)],[np.float64(-0.17916666666666667)],[1],[0],[0],[1.2237840829911875],['target'],Saloni,001,2025-09-29_18h05.53.161,visual search task 1,,2025.1.1,120.13058194395053,2025-09-29 18h06.00.323430 +0530,
44,0,44,[np.float64(0.3972222222222222)],[np.float64(0.2111111111111111)],[1],[0],[0],[1.946827250008937],['target'],44,0,44,0,53.37723220800399,,10,53.36685133300489,53.37723220800399,53.37723220800399,0.019331125004100613,55.31372954099788,[np.float64(0.3972222222222222)],[np.float64(0.2111111111111111)],[1],[0],[0],[1.946827250008937],['target'],Saloni,001,2025-09-29_18h05.53.161,visual search task 1,,2025.1.1,120.13058194395053,2025-09-29 18h06.00.323430 +0530,
45,0,45,[np.float64(-0.002777777777777778)],[np.float64(-0.0625)],[1],[0],[0],[2.1365423340030247],['target'],45,0,45,0,55.33852858300088,,10,55.328886457995395,55.33852858300088,55.33852858300088,0.015042874991195276,57.46547845800524,[np.float64(-0.002777777777777778)],[np.float64(-0.0625)],[1],[0],[0],[2.1365423340030247],['target'],Saloni,001,2025-09-29_18h05.53.161,visual search task 1,,2025.1.1,120.13058194395053,2025-09-29 18h06.00.323430 +0530,
46,0,46,[np.float64(0.20972222222222223)],[np.float64(-0.15)],[1],[0],[0],[2.165225125005236],['target'],46,0,46,0,57.49130191600125,,10,57.48207829099556,57.49130191600125,57.49130191600125,0.016464250002172776,59.64735120799742,[np.float64(0.20972222222222223)],[np.float64(-0.15)],[1],[0],[0],[2.165225125005236],['target'],Saloni,001,2025-09-29_18h05.53.161,visual search task 1,,2025.1.1,120.13058194395053,2025-09-29 18h06.00.323430 +0530,
47,0,47,[np.float64(-0.26666666666666666)],[np.float64(0.09583333333333334)],[1],[0],[0],[0.8763216250081314],['target'],47,0,47,0,59.662798250006745,,5,59.655807125003776,59.662798250006745,59.662798250006745,0.0083289159956621,60.53219183300098,[np.float64(-0.26666666666666666)],[np.float64(0.09583333333333334)],[1],[0],[0],[0.8763216250081314],['target'],Saloni,001,2025-09-29_18h05.53.161,visual search task 1,,2025.1.1,120.13058194395053,2025-09-29 18h06.00.323430 +0530,
48,0,48,[np.float64(-0.22083333333333333)],[np.float64(0.2152777777777778)],[1],[0],[0],[0.8883316660067067],['target'],48,0,48,0,60.55074325000169,,5,60.54286874999525,60.55074325000169,60.55074325000169,0.010543292009970173,61.43127358300262,[np.float64(-0.22083333333333333)],[np.float64(0.2152777777777778)],[1],[0],[0],[0.8883316660067067],['target'],Saloni,001,2025-09-29_18h05.53.161,visual search task 1,,2025.1.1,120.13058194395053,2025-09-29 18h06.00.323430 +0530,
49,0,49,[np.float64(0.11805555555555555)],[np.float64(-0.2111111111111111)],[1],[0],[0],[1.0209235419897595],['target'],49,0,49,0,61.452542625003844,,5,61.44313433300704,61.452542625003844,61.452542625003844,0.01172733400017023,62.46411062500556,[np.float64(0.11805555555555555)],[np.float64(-0.2111111111111111)],[1],[0],[0],[1.0209235419897595],['target'],Saloni,001,2025-09-29_18h05.53.161,visual search task 1,,2025.1.1,120.13058194395053,2025-09-29 18h06.00.323430 +0530,
50,0,50,[np.float64(0.41944444444444445)],[np.float64(-0.002777777777777778)],[1],[0],[0],[1.3976165000058245],['target'],50,0,50,0,62.4941517499974,,10,62.48412116599502,62.4941517499974,62.4941517499974,0.01988212499418296,63.881779457995435,[np.float64(0.41944444444444445)],[np.float64(-0.002777777777777778)],[1],[0],[0],[1.3976165000058245],['target'],Saloni,001,2025-09-29_18h05.53.161,visual search task 1,,2025.1.1,120.13058194395053,2025-09-29 18h06.00.323430 +0530,
51,0,51,[np.float64(0.09027777777777778)],[np.float64(-0.23194444444444445)],[1],[0],[0],[1.4337457910005469],['target'],51,0,51,0,63.90695179099566,,10,63.89759187500749,63.90695179099566,63.90695179099566,0.015691499997046776,65.33137245800754,[np.float64(0.09027777777777778)],[np.float64(-0.23194444444444445)],[1],[0],[0],[1.4337457910005469],['target'],Saloni,001,2025-09-29_18h05.53.161,visual search task 1,,2025.1.1,120.13058194395053,2025-09-29 18h06.00.323430 +0530,
52,0,52,[np.float64(-0.001388888888888889)],[np.float64(0.3819444444444444)],[1],[0],[0],[1.1746325830026763],['target'],52,0,52,0,65.3472502079967,,5,65.34030162500858,65.3472502079967,65.3472502079967,0.00880091599537991,66.51500529100304,[np.float64(-0.001388888888888889)],[np.float64(0.3819444444444444)],[1],[0],[0],[1.1746325830026763],['target'],Saloni,001,2025-09-29_18h05.53.161,visual search task 1,,2025.1.1,120.13058194395053,2025-09-29 18h06.00.323430 +0530,
53,0,53,[np.float64(0.18333333333333332)],[np.float64(-0.1527777777777778)],[1],[0],[0],[1.3886566250002943],['target'],53,0,53,0,66.53425108300871,,5,66.52625145799539,66.53425108300871,66.53425108300871,0.01111466700967867,67.91497391600569,[np.float64(0.18333333333333332)],[np.float64(-0.1527777777777778)],[1],[0],[0],[1.3886566250002943],['target'],Saloni,001,2025-09-29_18h05.53.161,visual search task 1,,2025.1.1,120.13058194395053,2025-09-29 18h06.00.323430 +0530,
54,0,54,[np.float64(-0.20972222222222223)],[np.float64(0.1625)],[1],[0],[0],[1.0712402089993702],['target'],54,0,54,0,67.93507024999417,,5,67.92642429099942,67.93507024999417,67.93507024999417,0.011324000006425194,68.99771554100153,[np.float64(-0.20972222222222223)],[np.float64(0.1625)],[1],[0],[0],[1.0712402089993702],['target'],Saloni,001,2025-09-29_18h05.53.161,visual search task 1,,2025.1.1,120.13058194395053,2025-09-29 18h06.00.323430 +0530,
55,0,55,[np.float64(0.45)],[np.float64(-0.23333333333333334)],[1],[0],[0],[1.789495832999819],['target'],55,0,55,0,69.01757145799638,,5,69.00890524999704,69.01757145799638,69.01757145799638,0.011065582992159761,70.79847370799689,[np.float64(0.45)],[np.float64(-0.23333333333333334)],[1],[0],[0],[1.789495832999819],['target'],Saloni,001,2025-09-29_18h05.53.161,visual search task 1,,2025.1.1,120.13058194395053,2025-09-29 18h06.00.323430 +0530,
56,0,56,[np.float64(-0.09444444444444444)],[np.float64(0.4083333333333333)],[1],[0],[0],[1.2622412089986028],['target'],56,0,56,0,70.8292550000042,,10,70.81876537500648,70.8292550000042,70.8292550000042,0.020168374991044402,72.0810418750043,[np.float64(-0.09444444444444444)],[np.float64(0.4083333333333333)],[1],[0],[0],[1.2622412089986028],['target'],Saloni,001,2025-09-29_18h05.53.161,visual search task 1,,2025.1.1,120.13058194395053,2025-09-29 18h06.00.323430 +0530,
57,0,57,[np.float64(0.07777777777777778)],[np.float64(-0.10694444444444444)],[1],[0],[0],[1.1427944169990951],['target'],57,0,57,0,72.09602362499572,,5,72.08936170800007,72.09602362499572,72.09602362499572,0.008202042008633725,73.2322278329957,[np.float64(0.07777777777777778)],[np.float64(-0.10694444444444444)],[1],[0],[0],[1.1427944169990951],['target'],Saloni,001,2025-09-29_18h05.53.161,visual search task 1,,2025.1.1,120.13058194395053,2025-09-29 18h06.00.323430 +0530,
58,0,58,[np.float64(0.44027777777777777)],[np.float64(-0.4652777777777778)],[1],[0],[0],[2.2555039579892764],['target'],58,0,58,0,73.25178733300709,,5,73.24305995799659,73.25178733300709,73.25178733300709,0.010709832989959978,75.49862025000039,[np.float64(0.44027777777777777)],[np.float64(-0.4652777777777778)],[1],[0],[0],[2.2555039579892764],['target'],Saloni,001,2025-09-29_18h05.53.161,visual search task 1,,2025.1.1,120.13058194395053,2025-09-29 18h06.00.323430 +0530,
59,0,59,[np.float64(0.10833333333333334)],[np.float64(-0.03888888888888889)],[1],[0],[0],[1.1064604580024024],['target'],59,0,59,0,75.51878508299706,,5,75.50996412499808,75.51878508299706,75.51878508299706,0.011209584001335315,76.61649174999911,[np.float64(0.10833333333333334)],[np.float64(-0.03888888888888889)],[1],[0],[0],[1.1064604580024024],['target'],Saloni,001,2025-09-29_18h05.53.161,visual search task 1,,2025.1.1,120.13058194395053,2025-09-29 18h06.00.323430 +0530,
60,0,60,[np.float64(0.2625)],[np.float64(-0.2652777777777778)],[1],[0],[0],[1.0706915420014411],['target'],60,0,60,0,76.63613891600107,,5,76.62793225000496,76.63613891600107,76.63613891600107,0.011279958998784423,77.69868770800531,[np.float64(0.2625)],[np.float64(-0.2652777777777778)],[1],[0],[0],[1.0706915420014411],['target'],Saloni,001,2025-09-29_18h05.53.161,visual search task 1,,2025.1.1,120.13058194395053,2025-09-29 18h06.00.323430 +0530,
61,0,61,[np.float64(-0.030555555555555555)],[np.float64(0.3819444444444444)],[1],[0],[0],[1.1038252500002272],['target'],61,0,61,0,77.71933845800231,,5,77.71042233299522,77.71933845800231,77.71933845800231,0.01155687500431668,78.814301624996,[np.float64(-0.030555555555555555)],[np.float64(0.3819444444444444)],[1],[0],[0],[1.1038252500002272],['target'],Saloni,001,2025-09-29_18h05.53.161,visual search task 1,,2025.1.1,120.13058194395053,2025-09-29 18h06.00.323430 +0530,
62,0,62,[np.float64(0.49722222222222223)],[np.float64(0.43472222222222223)],[1],[0],[0],[1.4740943329961738],['target'],62,0,62,0,78.83349987500696,,5,78.82520216600096,78.83349987500696,78.83349987500696,0.010760832999949344,80.29937604100269,[np.float64(0.49722222222222223)],[np.float64(0.43472222222222223)],[1],[0],[0],[1.4740943329961738],['target'],Saloni,001,2025-09-29_18h05.53.161,visual search task 1,,2025.1.1,120.13058194395053,2025-09-29 18h06.00.323430 +0530,
63,0,63,[np.float64(-0.44027777777777777)],[np.float64(-0.28888888888888886)],[1],[0],[0],[1.3032382910023443],['target'],63,0,63,0,80.3213573749963,,5,80.31196479100618,80.3213573749963,80.3213573749963,0.0124413749872474,81.6152566660021,[np.float64(-0.44027777777777777)],[np.float64(-0.28888888888888886)],[1],[0],[0],[1.3032382910023443],['target'],Saloni,001,2025-09-29_18h05.53.161,visual search task 1,,2025.1.1,120.13058194395053,2025-09-29 18h06.00.323430 +0530,
64,0,64,[np.float64(-0.004166666666666667)],[np.float64(-0.2875)],[1],[0],[0],[1.4223511660093209],['target'],64,0,64,0,81.63543345799553,,5,81.62670545799483,81.63543345799553,81.63543345799553,0.011320749996230006,83.04913687500812,[np.float64(-0.004166666666666667)],[np.float64(-0.2875)],[1],[0],[0],[1.4223511660093209],['target'],Saloni,001,2025-09-29_18h05.53.161,visual search task 1,,2025.1.1,120.13058194395053,2025-09-29 18h06.00.323430 +0530,
65,0,65,[np.float64(-0.1486111111111111)],[np.float64(-0.10416666666666667)],[1],[0],[0],[1.1457610000070417],['target'],65,0,65,0,83.07954420799797,,10,83.06890345799911,83.07954420799797,83.07954420799797,0.01963650000107009,84.21470466599567,[np.float64(-0.1486111111111111)],[np.float64(-0.10416666666666667)],[1],[0],[0],[1.1457610000070417],['target'],Saloni,001,2025-09-29_18h05.53.161,visual search task 1,,2025.1.1,120.13058194395053,2025-09-29 18h06.00.323430 +0530,
66,0,66,[np.float64(0.43194444444444446)],[np.float64(0.24583333333333332)],[1],[0],[0],[1.3173385830014013],['target'],66,0,66,0,84.23966704099439,,10,84.2305804159987,84.23966704099439,84.23966704099439,0.015755582993733697,85.5479753749969,[np.float64(0.43194444444444446)],[np.float64(0.24583333333333332)],[1],[0],[0],[1.3173385830014013],['target'],Saloni,001,2025-09-29_18h05.53.161,visual search task 1,,2025.1.1,120.13058194395053,2025-09-29 18h06.00.323430 +0530,
67,0,67,[np.float64(0.24861111111111112)],[np.float64(-0.1111111111111111)],[1],[0],[0],[1.1259489170042798],['target'],67,0,67,0,85.56391387499752,,5,85.55655179099995,85.56391387499752,85.56391387499752,0.008455582996248268,86.68257208299474,[np.float64(0.24861111111111112)],[np.float64(-0.1111111111111111)],[1],[0],[0],[1.1259489170042798],['target'],Saloni,001,2025-09-29_18h05.53.161,visual search task 1,,2025.1.1,120.13058194395053,2025-09-29 18h06.00.323430 +0530,
68,0,68,[np.float64(-0.08055555555555556)],[np.float64(0.3597222222222222)],[1],[0],[0],[1.7309099170088302],['target'],68,0,68,0,86.71116029100085,,10,86.70106779100024,86.71116029100085,86.71116029100085,0.01836341699527111,88.43202212499455,[np.float64(-0.08055555555555556)],[np.float64(0.3597222222222222)],[1],[0],[0],[1.7309099170088302],['target'],Saloni,001,2025-09-29_18h05.53.161,visual search task 1,,2025.1.1,120.13058194395053,2025-09-29 18h06.00.323430 +0530,
69,0,69,[np.float64(0.44583333333333336)],[np.float64(-0.12222222222222222)],[1],[0],[0],[1.0350669999897946],['target'],69,0,69,0,88.45597850000195,,10,88.44677020800009,88.45597850000195,88.45597850000195,0.01463566700113006,89.48189545799687,[np.float64(0.44583333333333336)],[np.float64(-0.12222222222222222)],[1],[0],[0],[1.0350669999897946],['target'],Saloni,001,2025-09-29_18h05.53.161,visual search task 1,,2025.1.1,120.13058194395053,2025-09-29 18h06.00.323430 +0530,
70,0,70,[np.float64(0.4125)],[np.float64(0.08611111111111111)],[1],[0],[0],[1.0660268330102554],['target'],70,0,70,0,89.55944433300465,,10,89.5506868329976,89.55944433300465,89.55944433300465,0.06866991700371727,90.61677729099756,[np.float64(0.4125)],[np.float64(0.08611111111111111)],[1],[0],[0],[1.0660268330102554],['target'],Saloni,001,2025-09-29_18h05.53.161,visual search task 1,,2025.1.1,120.13058194395053,2025-09-29 18h06.00.323430 +0530,
71,0,71,[np.float64(-0.4875)],[np.float64(-0.002777777777777778)],[1],[0],[0],[1.1816027500026394],['target'],71,0,71,0,90.64332425000612,,10,90.63393445800466,90.64332425000612,90.64332425000612,0.01697979100572411,91.81558629100618,[np.float64(-0.4875)],[np.float64(-0.002777777777777778)],[1],[0],[0],[1.1816027500026394],['target'],Saloni,001,2025-09-29_18h05.53.161,visual search task 1,,2025.1.1,120.13058194395053,2025-09-29 18h06.00.323430 +0530,
72,0,72,[np.float64(-0.325)],[np.float64(0.008333333333333333)],[1],[0],[0],[0.8929040410002926],['target'],72,0,72,0,91.83086462500796,,5,91.82390274999489,91.83086462500796,91.83086462500796,0.008194917012588121,92.71688024999457,[np.float64(-0.325)],[np.float64(0.008333333333333333)],[1],[0],[0],[0.8929040410002926],['target'],Saloni,001,2025-09-29_18h05.53.161,visual search task 1,,2025.1.1,120.13058194395053,2025-09-29 18h06.00.323430 +0530,
73,0,73,[np.float64(-0.025)],[np.float64(0.2708333333333333)],[1],[0],[0],[0.8387392500007991],['target'],73,0,73,0,92.73654458300734,,5,92.7280932910071,92.73654458300734,92.73654458300734,0.011076624999986961,93.56690029099991,[np.float64(-0.025)],[np.float64(0.2708333333333333)],[1],[0],[0],[0.8387392500007991],['target'],Saloni,001,2025-09-29_18h05.53.161,visual search task 1,,2025.1.1,120.13058194395053,2025-09-29 18h06.00.323430 +0530,
74,0,74,[np.float64(0.25277777777777777)],[np.float64(-0.3541666666666667)],[1],[0],[0],[1.4876104160066461],['target'],74,0,74,0,93.58747879099974,,5,93.57819045800716,93.58747879099974,93.58747879099974,0.01116287500190083,95.0658585409983,[np.float64(0.25277777777777777)],[np.float64(-0.3541666666666667)],[1],[0],[0],[1.4876104160066461],['target'],Saloni,001,2025-09-29_18h05.53.161,visual search task 1,,2025.1.1,120.13058194395053,2025-09-29 18h06.00.323430 +0530,
75,0,75,[np.float64(0.2875)],[np.float64(0.39166666666666666)],[1],[0],[0],[1.178218500004732],['target'],75,0,75,0,95.09838925000804,,10,95.08710249999422,95.09838925000804,95.09838925000804,0.021124874998349696,96.26536062499508,[np.float64(0.2875)],[np.float64(0.39166666666666666)],[1],[0],[0],[1.178218500004732],['target'],Saloni,001,2025-09-29_18h05.53.161,visual search task 1,,2025.1.1,120.13058194395053,2025-09-29 18h06.00.323430 +0530,
76,0,76,[np.float64(0.18194444444444444)],[np.float64(-0.33611111111111114)],[1],[0],[0],[1.3530374169931747],['target'],76,0,76,0,96.28978624999581,,10,96.2804277910036,96.28978624999581,96.28978624999581,0.014959291991544887,97.63352554100857,[np.float64(0.18194444444444444)],[np.float64(-0.33611111111111114)],[1],[0],[0],[1.3530374169931747],['target'],Saloni,001,2025-09-29_18h05.53.161,visual search task 1,,2025.1.1,120.13058194395053,2025-09-29 18h06.00.323430 +0530,
77,0,77,[np.float64(0.21944444444444444)],[np.float64(-0.4444444444444444)],[1],[0],[0],[1.6675028330064379],['target'],77,0,77,0,97.65677191600844,,10,97.64787874999456,97.65677191600844,97.65677191600844,0.014234999995096587,99.31543216599675,[np.float64(0.21944444444444444)],[np.float64(-0.4444444444444444)],[1],[0],[0],[1.6675028330064379],['target'],Saloni,001,2025-09-29_18h05.53.161,visual search task 1,,2025.1.1,120.13058194395053,2025-09-29 18h06.00.323430 +0530,
78,0,78,[np.float64(0.29305555555555557)],[np.float64(-0.3)],[1],[0],[0],[1.2596717919950606],['target'],78,0,78,0,99.33047895799973,,5,99.32363583300321,99.33047895799973,99.33047895799973,0.008087166992481798,100.58338008300052,[np.float64(0.29305555555555557)],[np.float64(-0.3)],[1],[0],[0],[1.2596717919950606],['target'],Saloni,001,2025-09-29_18h05.53.161,visual search task 1,,2025.1.1,120.13058194395053,2025-09-29 18h06.00.323430 +0530,
79,0,79,[np.float64(0.11666666666666667)],[np.float64(0.13472222222222222)],[1],[0],[0],[0.7889470829977654],['target'],79,0,79,0,100.60169316599786,,5,100.59390183299547,100.60169316599786,100.60169316599786,0.010391874995548278,101.38290749999578,[np.float64(0.11666666666666667)],[np.float64(0.13472222222222222)],[1],[0],[0],[0.7889470829977654],['target'],Saloni,001,2025-09-29_18h05.53.161,visual search task 1,,2025.1.1,120.13058194395053,2025-09-29 18h06.00.323430 +0530,
80,0,80,[np.float64(0.175)],[np.float64(0.2847222222222222)],[1],[0],[0],[1.8486069170030532],['target'],80,0,80,0,101.41045916599978,,10,101.40073412499623,101.41045916599978,101.41045916599978,0.01771387498592958,103.24938974999532,[np.float64(0.175)],[np.float64(0.2847222222222222)],[1],[0],[0],[1.8486069170030532],['target'],Saloni,001,2025-09-29_18h05.53.161,visual search task 1,,2025.1.1,120.13058194395053,2025-09-29 18h06.00.323430 +0530,
81,0,81,[np.float64(0.059722222222222225)],[np.float64(-0.2375)],[1],[0],[0],[1.2499843330006115],['target'],81,0,81,0,103.27521129099478,,10,103.26575508300448,103.27521129099478,103.27521129099478,0.01622112499899231,104.51578254099877,[np.float64(0.059722222222222225)],[np.float64(-0.2375)],[1],[0],[0],[1.2499843330006115],['target'],Saloni,001,2025-09-29_18h05.53.161,visual search task 1,,2025.1.1,120.13058194395053,2025-09-29 18h06.00.323430 +0530,
82,0,82,[np.float64(0.15138888888888888)],[np.float64(-0.33055555555555555)],[1],[0],[0],[1.8025495420006337],['target'],82,0,82,0,104.54021779100003,,10,104.53113304100407,104.54021779100003,104.54021779100003,0.015227083000354469,106.33373112500703,[np.float64(0.15138888888888888)],[np.float64(-0.33055555555555555)],[1],[0],[0],[1.8025495420006337],['target'],Saloni,001,2025-09-29_18h05.53.161,visual search task 1,,2025.1.1,120.13058194395053,2025-09-29 18h06.00.323430 +0530,
83,0,83,[np.float64(0.42083333333333334)],[np.float64(0.41388888888888886)],[1],[0],[0],[1.5249827090010513],['target'],83,0,83,0,106.34893150000426,,5,106.34174491600425,106.34893150000426,106.34893150000426,0.007899584001279436,107.86680279100256,[np.float64(0.42083333333333334)],[np.float64(0.41388888888888886)],[1],[0],[0],[1.5249827090010513],['target'],Saloni,001,2025-09-29_18h05.53.161,visual search task 1,,2025.1.1,120.13058194395053,2025-09-29 18h06.00.323430 +0530,
84,0,84,[np.float64(0.10694444444444444)],[np.float64(0.33194444444444443)],[1],[0],[0],[1.2966183749958873],['target'],84,0,84,0,107.89643720800814,,10,107.88619299999846,107.89643720800814,107.89643720800814,0.019258959000580944,109.18286641599843,[np.float64(0.10694444444444444)],[np.float64(0.33194444444444443)],[1],[0],[0],[1.2966183749958873],['target'],Saloni,001,2025-09-29_18h05.53.161,visual search task 1,,2025.1.1,120.13058194395053,2025-09-29 18h06.00.323430 +0530,
85,0,85,[np.float64(-0.05277777777777778)],[np.float64(-0.034722222222222224)],[1],[0],[0],[0.9262114169978304],['target'],85,0,85,0,109.19816675000766,,5,109.19131979100348,109.19816675000766,109.19816675000766,0.008287249991553836,110.11760704100016,[np.float64(-0.05277777777777778)],[np.float64(-0.034722222222222224)],[1],[0],[0],[0.9262114169978304],['target'],Saloni,001,2025-09-29_18h05.53.161,visual search task 1,,2025.1.1,120.13058194395053,2025-09-29 18h06.00.323430 +0530,
86,0,86,[np.float64(-0.3541666666666667)],[np.float64(0.3819444444444444)],[1],[0],[0],[1.5053721659933217],['target'],86,0,86,0,110.13621895799588,,5,110.12824887500028,110.13621895799588,110.13621895799588,0.010510250009247102,111.6336929579993,[np.float64(-0.3541666666666667)],[np.float64(0.3819444444444444)],[1],[0],[0],[1.5053721659933217],['target'],Saloni,001,2025-09-29_18h05.53.161,visual search task 1,,2025.1.1,120.13058194395053,2025-09-29 18h06.00.323430 +0530,
87,0,87,[np.float64(0.1986111111111111)],[np.float64(-0.37222222222222223)],[1],[0],[0],[1.155114915993181],['target'],87,0,87,0,111.65397170800134,,5,111.64488274999894,111.65397170800134,111.65397170800134,0.011065041995607316,112.80006604100345,[np.float64(0.1986111111111111)],[np.float64(-0.37222222222222223)],[1],[0],[0],[1.155114915993181],['target'],Saloni,001,2025-09-29_18h05.53.161,visual search task 1,,2025.1.1,120.13058194395053,2025-09-29 18h06.00.323430 +0530,
88,0,88,[np.float64(-0.2847222222222222)],[np.float64(0.12916666666666668)],[1],[0],[0],[0.9290196249930887],['target'],88,0,88,0,112.83008079099818,,10,112.81980133299658,112.83008079099818,112.83008079099818,0.019601833002525382,113.74886370799504,[np.float64(-0.2847222222222222)],[np.float64(0.12916666666666668)],[1],[0],[0],[0.9290196249930887],['target'],Saloni,001,2025-09-29_18h05.53.161,visual search task 1,,2025.1.1,120.13058194395053,2025-09-29 18h06.00.323430 +0530,
89,0,89,[np.float64(-0.07361111111111111)],[np.float64(0.3972222222222222)],[1],[0],[0],[2.6031282920012018],['target'],89,0,89,0,113.77276391600026,,10,113.76319337499444,113.77276391600026,113.77276391600026,0.014188957997248508,116.36637375000282,[np.float64(-0.07361111111111111)],[np.float64(0.3972222222222222)],[1],[0],[0],[2.6031282920012018],['target'],Saloni,001,2025-09-29_18h05.53.161,visual search task 1,,2025.1.1,120.13058194395053,2025-09-29 18h06.00.323430 +0530,
90,0,90,[np.float64(0.08194444444444444)],[np.float64(-0.2777777777777778)],[1],[0],[0],[1.1696757500030799],['target'],90,0,90,0,116.39040545800526,,10,116.38107037500595,116.39040545800526,116.39040545800526,0.014582792005967349,117.55079679099435,[np.float64(0.08194444444444444)],[np.float64(-0.2777777777777778)],[1],[0],[0],[1.1696757500030799],['target'],Saloni,001,2025-09-29_18h05.53.161,visual search task 1,,2025.1.1,120.13058194395053,2025-09-29 18h06.00.323430 +0530,
91,0,91,[np.float64(0.018055555555555554)],[np.float64(-0.29444444444444445)],[1],[0],[0],[1.4832627079886151],['target'],91,0,91,0,117.57613837500685,,10,117.5667475000082,117.57613837500685,117.57613837500685,0.01582945899281185,119.05007320799632,[np.float64(0.018055555555555554)],[np.float64(-0.29444444444444445)],[1],[0],[0],[1.4832627079886151],['target'],Saloni,001,2025-09-29_18h05.53.161,visual search task 1,,2025.1.1,120.13058194395053,2025-09-29 18h06.00.323430 +0530,
92,0,92,[np.float64(-0.30833333333333335)],[np.float64(-0.32083333333333336)],[1],[0],[0],[1.408860416006064],['target'],92,0,92,0,119.06561762500496,,5,119.05868066599942,119.06561762500496,119.06561762500496,0.008441041994956322,120.4676052910072,[np.float64(-0.30833333333333335)],[np.float64(-0.32083333333333336)],[1],[0],[0],[1.408860416006064],['target'],Saloni,001,2025-09-29_18h05.53.161,visual search task 1,,2025.1.1,120.13058194395053,2025-09-29 18h06.00.323430 +0530,
93,0,93,[np.float64(-0.39444444444444443)],[np.float64(0.022222222222222223)],[1],[0],[0],[1.223434957995778],['target'],93,0,93,0,120.48520250000001,,5,120.47768104099669,120.48520250000001,120.48520250000001,0.00994745799107477,121.70119900000282,[np.float64(-0.39444444444444443)],[np.float64(0.022222222222222223)],[1],[0],[0],[1.223434957995778],['target'],Saloni,001,2025-09-29_18h05.53.161,visual search task 1,,2025.1.1,120.13058194395053,2025-09-29 18h06.00.323430 +0530,
94,0,94,[np.float64(0.4888888888888889)],[np.float64(0.23055555555555557)],[1],[0],[0],[1.6561783750075847],['target'],94,0,94,0,121.71867737499997,,5,121.71098975000496,121.71867737499997,121.71867737499997,0.009665875011705793,123.36723854100273,[np.float64(0.4888888888888889)],[np.float64(0.23055555555555557)],[1],[0],[0],[1.6561783750075847],['target'],Saloni,001,2025-09-29_18h05.53.161,visual search task 1,,2025.1.1,120.13058194395053,2025-09-29 18h06.00.323430 +0530,
95,0,95,[np.float64(0.22777777777777777)],[np.float64(0.07361111111111111)],[1],[0],[0],[1.2787250830006087],['target'],95,0,95,0,123.39851987500151,,10,123.38750220800284,123.39851987500151,123.39851987500151,0.020129833996179514,124.66626658300811,[np.float64(0.22777777777777777)],[np.float64(0.07361111111111111)],[1],[0],[0],[1.2787250830006087],['target'],Saloni,001,2025-09-29_18h05.53.161,visual search task 1,,2025.1.1,120.13058194395053,2025-09-29 18h06.00.323430 +0530,
96,0,96,[np.float64(0.4166666666666667)],[np.float64(0.45416666666666666)],[1],[0],[0],[1.351151957991533],['target'],96,0,96,0,124.6915748330066,,10,124.68235804099822,124.6915748330066,124.6915748330066,0.01596949998929631,126.03356495800836,[np.float64(0.4166666666666667)],[np.float64(0.45416666666666666)],[1],[0],[0],[1.351151957991533],['target'],Saloni,001,2025-09-29_18h05.53.161,visual search task 1,,2025.1.1,120.13058194395053,2025-09-29 18h06.00.323430 +0530,
97,0,97,[np.float64(-0.3541666666666667)],[np.float64(-0.30833333333333335)],[1],[0],[0],[1.3084749589907005],['target'],97,0,97,0,126.0496014579985,,5,126.04213970800629,126.0496014579985,126.0496014579985,0.008448874999885447,127.35068329100613,[np.float64(-0.3541666666666667)],[np.float64(-0.30833333333333335)],[1],[0],[0],[1.3084749589907005],['target'],Saloni,001,2025-09-29_18h05.53.161,visual search task 1,,2025.1.1,120.13058194395053,2025-09-29 18h06.00.323430 +0530,
98,0,98,[np.float64(0.07777777777777778)],[np.float64(-0.04722222222222222)],[1],[0],[0],[1.977900750003755],['target'],98,0,98,0,127.38327591599955,,10,127.37223316599557,127.38327591599955,127.38327591599955,0.021401292004156858,129.3501800410013,[np.float64(0.07777777777777778)],[np.float64(-0.04722222222222222)],[1],[0],[0],[1.977900750003755],['target'],Saloni,001,2025-09-29_18h05.53.161,visual search task 1,,2025.1.1,120.13058194395053,2025-09-29 18h06.00.323430 +0530,
99,0,99,[np.float64(-0.12083333333333333)],[np.float64(-0.11527777777777778)],[1],[0],[0],[0.8766330829967046],['target'],99,0,99,0,129.36572945800435,,5,129.3585798330023,129.36572945800435,129.36572945800435,0.008291083999210969,130.23526766600844,[np.float64(-0.12083333333333333)],[np.float64(-0.11527777777777778)],[1],[0],[0],[0.8766330829967046],['target'],Saloni,001,2025-09-29_18h05.53.161,visual search task 1,,2025.1.1,120.13058194395053,2025-09-29 18h06.00.323430 +0530,
100,0,100,[np.float64(0.26666666666666666)],[np.float64(-0.3236111111111111)],[1],[0],[0],[1.3555384159990354],['target'],100,0,100,0,130.25317420800275,,5,130.24542087499867,130.25317420800275,130.25317420800275,0.0100372500019148,131.6010211660032,[np.float64(0.26666666666666666)],[np.float64(-0.3236111111111111)],[1],[0],[0],[1.3555384159990354],['target'],Saloni,001,2025-09-29_18h05.53.161,visual search task 1,,2025.1.1,120.13058194395053,2025-09-29 18h06.00.323430 +0530,
101,0,101,[np.float64(0.041666666666666664)],[np.float64(0.34305555555555556)],[1],[0],[0],[1.6983583749970421],['target'],101,0,101,0,131.6285069160076,,10,131.6187521660031,131.6285069160076,131.6285069160076,0.017611667004530318,133.31716012500692,[np.float64(0.041666666666666664)],[np.float64(0.34305555555555556)],[1],[0],[0],[1.6983583749970421],['target'],Saloni,001,2025-09-29_18h05.53.161,visual search task 1,,2025.1.1,120.13058194395053,2025-09-29 18h06.00.323430 +0530,
102,0,102,[np.float64(-0.22777777777777777)],[np.float64(-0.26666666666666666)],[1],[0],[0],[1.3680362080049235],['target'],102,0,102,0,133.3413105829968,,10,133.33188733299903,133.3413105829968,133.3413105829968,0.014618125002016313,134.6999702500034,[np.float64(-0.22777777777777777)],[np.float64(-0.26666666666666666)],[1],[0],[0],[1.3680362080049235],['target'],Saloni,001,2025-09-29_18h05.53.161,visual search task 1,,2025.1.1,120.13058194395053,2025-09-29 18h06.00.323430 +0530,
103,0,103,[np.float64(-0.10138888888888889)],[np.float64(-0.32222222222222224)],[1],[0],[0],[0.9760385419940576],['target'],103,0,103,0,134.71480570800486,,5,134.70783775000018,134.71480570800486,134.71480570800486,0.0077562499936902896,135.68395099999907,[np.float64(-0.10138888888888889)],[np.float64(-0.32222222222222224)],[1],[0],[0],[0.9760385419940576],['target'],Saloni,001,2025-09-29_18h05.53.161,visual search task 1,,2025.1.1,120.13058194395053,2025-09-29 18h06.00.323430 +0530,
104,0,104,[np.float64(0.4486111111111111)],[np.float64(0.21666666666666667)],[1],[0],[0],[1.3143052499945043],['target'],104,0,104,0,135.71252266599913,,10,135.7023238749971,135.71252266599913,135.71252266599913,0.01824279200809542,137.01666912500514,[np.float64(0.4486111111111111)],[np.float64(0.21666666666666667)],[1],[0],[0],[1.3143052499945043],['target'],Saloni,001,2025-09-29_18h05.53.161,visual search task 1,,2025.1.1,120.13058194395053,2025-09-29 18h06.00.323430 +0530,
105,0,105,[np.float64(0.3388888888888889)],[np.float64(-0.125)],[1],[0],[0],[1.3340847500076052],['target'],105,0,105,0,137.04216199999792,,10,137.03279525000835,137.04216199999792,137.04216199999792,0.01600699999835342,138.36692420800682,[np.float64(0.3388888888888889)],[np.float64(-0.125)],[1],[0],[0],[1.3340847500076052],['target'],Saloni,001,2025-09-29_18h05.53.161,visual search task 1,,2025.1.1,120.13058194395053,2025-09-29 18h06.00.323430 +0530,
106,0,106,[np.float64(0.020833333333333332)],[np.float64(0.03194444444444444)],[1],[0],[0],[1.5409422919910867],['target'],106,0,106,0,138.38436129099864,,5,138.3765253330057,138.38436129099864,138.38436129099864,0.009484750000410713,139.91753645800054,[np.float64(0.020833333333333332)],[np.float64(0.03194444444444444)],[1],[0],[0],[1.5409422919910867],['target'],Saloni,001,2025-09-29_18h05.53.161,visual search task 1,,2025.1.1,120.13058194395053,2025-09-29 18h06.00.323430 +0530,
107,0,107,[np.float64(0.030555555555555555)],[np.float64(-0.05694444444444444)],[1],[0],[0],[0.8728909159981413],['target'],107,0,107,0,139.93562666600337,,5,139.92779295799846,139.93562666600337,139.93562666600337,0.01012412499403581,140.80074970799615,[np.float64(0.030555555555555555)],[np.float64(-0.05694444444444444)],[1],[0],[0],[0.8728909159981413],['target'],Saloni,001,2025-09-29_18h05.53.161,visual search task 1,,2025.1.1,120.13058194395053,2025-09-29 18h06.00.323430 +0530,
108,0,108,[np.float64(0.18194444444444444)],[np.float64(-0.08194444444444444)],[1],[0],[0],[1.139792292000493],['target'],108,0,108,0,140.8189623329963,,5,140.81076908300747,140.8189623329963,140.8189623329963,0.009904332997393794,141.95061820800765,[np.float64(0.18194444444444444)],[np.float64(-0.08194444444444444)],[1],[0],[0],[1.139792292000493],['target'],Saloni,001,2025-09-29_18h05.53.161,visual search task 1,,2025.1.1,120.13058194395053,2025-09-29 18h06.00.323430 +0530,
109,0,109,[np.float64(-0.4486111111111111)],[np.float64(-0.3527777777777778)],[1],[0],[0],[1.9323931249964517],['target'],109,0,109,0,141.97862554099993,,10,141.96890820800036,141.97862554099993,141.97862554099993,0.018160459003411233,143.90134083300654,[np.float64(-0.4486111111111111)],[np.float64(-0.3527777777777778)],[1],[0],[0],[1.9323931249964517],['target'],Saloni,001,2025-09-29_18h05.53.161,visual search task 1,,2025.1.1,120.13058194395053,2025-09-29 18h06.00.323430 +0530,
110,0,110,[np.float64(-0.4652777777777778)],[np.float64(-0.28194444444444444)],[1],[0],[0],[1.0246626250009285],['target'],110,0,110,0,143.91675445799774,,5,143.9095129579946,143.91675445799774,143.91675445799774,0.008061625005211681,144.93425325000135,[np.float64(-0.4652777777777778)],[np.float64(-0.28194444444444444)],[1],[0],[0],[1.0246626250009285],['target'],Saloni,001,2025-09-29_18h05.53.161,visual search task 1,,2025.1.1,120.13058194395053,2025-09-29 18h06.00.323430 +0530,
111,0,111,[np.float64(-0.16527777777777777)],[np.float64(-0.43333333333333335)],[1],[0],[0],[1.6224854159954702],['target'],111,0,111,0,144.95399395799905,,5,144.9452879159944,144.95399395799905,144.95399395799905,0.010890667006606236,146.56784229099867,[np.float64(-0.16527777777777777)],[np.float64(-0.43333333333333335)],[1],[0],[0],[1.6224854159954702],['target'],Saloni,001,2025-09-29_18h05.53.161,visual search task 1,,2025.1.1,120.13058194395053,2025-09-29 18h06.00.323430 +0530,
112,0,112,[np.float64(-0.1736111111111111)],[np.float64(0.4527777777777778)],[1],[0],[0],[1.9562488329975167],['target'],112,0,112,0,146.58762945800845,,5,146.57852729099977,146.58762945800845,146.58762945800845,0.010556500012171455,148.53483979099838,[np.float64(-0.1736111111111111)],[np.float64(0.4527777777777778)],[1],[0],[0],[1.9562488329975167],['target'],Saloni,001,2025-09-29_18h05.53.161,visual search task 1,,2025.1.1,120.13058194395053,2025-09-29 18h06.00.323430 +0530,
113,0,113,[np.float64(0.1736111111111111)],[np.float64(-0.46111111111111114)],[1],[0],[0],[1.5478613330051303],['target'],113,0,113,0,148.5636368330015,,10,148.55322733300272,148.5636368330015,148.5636368330015,0.018274540998390876,150.10113850000198,[np.float64(0.1736111111111111)],[np.float64(-0.46111111111111114)],[1],[0],[0],[1.5478613330051303],['target'],Saloni,001,2025-09-29_18h05.53.161,visual search task 1,,2025.1.1,120.13058194395053,2025-09-29 18h06.00.323430 +0530,
114,0,114,[np.float64(-0.4166666666666667)],[np.float64(-0.17083333333333334)],[1],[0],[0],[1.075150083997869],['target'],114,0,114,0,150.11698091600556,,5,150.10993575000612,150.11698091600556,150.11698091600556,0.008665207991725765,151.18516370799625,[np.float64(-0.4166666666666667)],[np.float64(-0.17083333333333334)],[1],[0],[0],[1.075150083997869],['target'],Saloni,001,2025-09-29_18h05.53.161,visual search task 1,,2025.1.1,120.13058194395053,2025-09-29 18h06.00.323430 +0530,
115,0,115,[np.float64(0.3111111111111111)],[np.float64(0.37222222222222223)],[1],[0],[0],[1.3731127079954604],['target'],115,0,115,0,151.20391729100083,,5,151.19566425000085,151.20391729100083,151.20391729100083,0.01037591599742882,152.5688422910025,[np.float64(0.3111111111111111)],[np.float64(0.37222222222222223)],[1],[0],[0],[1.3731127079954604],['target'],Saloni,001,2025-09-29_18h05.53.161,visual search task 1,,2025.1.1,120.13058194395053,2025-09-29 18h06.00.323430 +0530,
116,0,116,[np.float64(0.30833333333333335)],[np.float64(0.29305555555555557)],[1],[0],[0],[1.0871399590105284],['target'],116,0,116,0,152.59228583300137,,5,152.58196791600494,152.59228583300137,152.59228583300137,0.012979416991584003,153.66917737500626,[np.float64(0.30833333333333335)],[np.float64(0.29305555555555557)],[1],[0],[0],[1.0871399590105284],['target'],Saloni,001,2025-09-29_18h05.53.161,visual search task 1,,2025.1.1,120.13058194395053,2025-09-29 18h06.00.323430 +0530,
117,0,117,[np.float64(-0.16666666666666666)],[np.float64(0.25555555555555554)],[1],[0],[0],[3.914083041003323],['target'],117,0,117,0,153.6977055830066,,10,153.68767204100732,153.6977055830066,153.6977055830066,0.018362666000030003,157.60179595800582,[np.float64(-0.16666666666666666)],[np.float64(0.25555555555555554)],[1],[0],[0],[3.914083041003323],['target'],Saloni,001,2025-09-29_18h05.53.161,visual search task 1,,2025.1.1,120.13058194395053,2025-09-29 18h06.00.323430 +0530,
118,0,118,[np.float64(-0.1361111111111111)],[np.float64(0.2125)],[1],[0],[0],[0.6341596670099534],['target'],118,0,118,0,157.62666966600227,,10,157.61665720799647,157.62666966600227,157.62666966600227,0.014748999994480982,158.2508609159995,[np.float64(-0.1361111111111111)],[np.float64(0.2125)],[1],[0],[0],[0.6341596670099534],['target'],Saloni,001,2025-09-29_18h05.53.161,visual search task 1,,2025.1.1,120.13058194395053,2025-09-29 18h06.00.323430 +0530,
119,0,119,[np.float64(0.029166666666666667)],[np.float64(0.0)],[1],[0],[0],[2.4501743330038153],['target'],119,0,119,0,158.27588295799796,,10,158.26692379100132,158.27588295799796,158.27588295799796,0.015937958989525214,160.71715795800264,[np.float64(0.029166666666666667)],[np.float64(0.0)],[1],[0],[0],[2.4501743330038153],['target'],Saloni,001,2025-09-29_18h05.53.161,visual search task 1,,2025.1.1,120.13058194395053,2025-09-29 18h06.00.323430 +0530,
120,0,120,"[np.float64(0.029166666666666667), np.float64(-0.02361111111111111)]","[np.float64(0.0), np.float64(-0.4513888888888889)]","[1, 1]","[0, 0]","[0, 0]","[0.20905845900415443, 1.659417625007336]","[None, 'target']",120,0,120,0,160.73180141599732,,5,160.72484537500713,160.73180141599732,160.73180141599732,0.007563791004940867,162.3843214160006,"[np.float64(0.029166666666666667), np.float64(-0.02361111111111111)]","[np.float64(0.0), np.float64(-0.4513888888888889)]","[1, 1]","[0, 0]","[0, 0]","[0.20905845900415443, 1.659417625007336]","[None, 'target']",Saloni,001,2025-09-29_18h05.53.161,visual search task 1,,2025.1.1,120.13058194395053,2025-09-29 18h06.00.323430 +0530,
121,0,121,[np.float64(0.13055555555555556)],[np.float64(-0.44305555555555554)],[1],[0],[0],[1.3971211669995682],['target'],121,0,121,0,162.41375941599836,,10,162.4032856660051,162.41375941599836,162.41375941599836,0.018816374999005347,163.8004476250062,[np.float64(0.13055555555555556)],[np.float64(-0.44305555555555554)],[1],[0],[0],[1.3971211669995682],['target'],Saloni,001,2025-09-29_18h05.53.161,visual search task 1,,2025.1.1,120.13058194395053,2025-09-29 18h06.00.323430 +0530,
122,0,122,[np.float64(0.1875)],[np.float64(-0.05138888888888889)],[1],[0],[0],[1.6366288340068422],['target'],122,0,122,0,163.82497149999836,,10,163.81591645799926,163.82497149999836,163.82497149999836,0.015350416011642665,165.45259587500186,[np.float64(0.1875)],[np.float64(-0.05138888888888889)],[1],[0],[0],[1.6366288340068422],['target'],Saloni,001,2025-09-29_18h05.53.161,visual search task 1,,2025.1.1,120.13058194395053,2025-09-29 18h06.00.323430 +0530,
123,0,123,[np.float64(-0.2875)],[np.float64(-0.33611111111111114)],[1],[0],[0],[1.700622749995091],['target'],123,0,123,0,165.4763776250038,,10,165.4673244160076,165.4763776250038,165.4763776250038,0.014574166998500004,167.16799758300476,[np.float64(-0.2875)],[np.float64(-0.33611111111111114)],[1],[0],[0],[1.700622749995091],['target'],Saloni,001,2025-09-29_18h05.53.161,visual search task 1,,2025.1.1,120.13058194395053,2025-09-29 18h06.00.323430 +0530,
124,0,124,[np.float64(0.26944444444444443)],[np.float64(0.23472222222222222)],[1],[0],[0],[1.302985542002716],['target'],124,0,124,0,167.19208829100535,,10,167.18274220799503,167.19208829100535,167.19208829100535,0.014633999991929159,168.4857788750087,[np.float64(0.26944444444444443)],[np.float64(0.23472222222222222)],[1],[0],[0],[1.302985542002716],['target'],Saloni,001,2025-09-29_18h05.53.161,visual search task 1,,2025.1.1,120.13058194395053,2025-09-29 18h06.00.323430 +0530,
125,0,125,[np.float64(-0.1638888888888889)],[np.float64(0.18055555555555555)],[1],[0],[0],[1.0174468330078525],['target'],125,0,125,0,168.50981550000142,,10,168.50045116600813,168.50981550000142,168.50981550000142,0.01455208299739752,169.51795116599533,[np.float64(-0.1638888888888889)],[np.float64(0.18055555555555555)],[1],[0],[0],[1.0174468330078525],['target'],Saloni,001,2025-09-29_18h05.53.161,visual search task 1,,2025.1.1,120.13058194395053,2025-09-29 18h06.00.323430 +0530,
126,0,126,[np.float64(-0.022222222222222223)],[np.float64(-0.14722222222222223)],[1],[0],[0],[0.9425597920053406],['target'],126,0,126,0,169.5342437500076,,5,169.52700108299905,169.5342437500076,169.5342437500076,0.008914916994399391,170.46963087499898,[np.float64(-0.022222222222222223)],[np.float64(-0.14722222222222223)],[1],[0],[0],[0.9425597920053406],['target'],Saloni,001,2025-09-29_18h05.53.161,visual search task 1,,2025.1.1,120.13058194395053,2025-09-29 18h06.00.323430 +0530,
127,0,127,[np.float64(-0.13055555555555556)],[np.float64(0.20277777777777778)],[1],[0],[0],[0.8713729589944705],['target'],127,0,127,0,170.48857962500188,,5,170.48029237499577,170.48857962500188,170.48857962500188,0.010535042005358264,171.35172570799477,[np.float64(-0.13055555555555556)],[np.float64(0.20277777777777778)],[1],[0],[0],[0.8713729589944705],['target'],Saloni,001,2025-09-29_18h05.53.161,visual search task 1,,2025.1.1,120.13058194395053,2025-09-29 18h06.00.323430 +0530,
128,0,128,[np.float64(-0.4527777777777778)],[np.float64(-0.4652777777777778)],[1],[0],[0],[1.7140681249875342],['target'],128,0,128,0,171.38112362500397,,10,171.37041462499474,171.38112362500397,171.38112362500397,0.018573707988252863,173.08453212499444,[np.float64(-0.4527777777777778)],[np.float64(-0.4652777777777778)],[1],[0],[0],[1.7140681249875342],['target'],Saloni,001,2025-09-29_18h05.53.161,visual search task 1,,2025.1.1,120.13058194395053,2025-09-29 18h06.00.323430 +0530,
129,0,129,[np.float64(-0.20416666666666666)],[np.float64(0.20972222222222223)],[1],[0],[0],[1.0345467919978546],['target'],129,0,129,0,173.10954525000125,,10,173.10026016600023,173.10954525000125,173.10954525000125,0.015608749992679805,174.13484700000845,[np.float64(-0.20416666666666666)],[np.float64(0.20972222222222223)],[1],[0],[0],[1.0345467919978546],['target'],Saloni,001,2025-09-29_18h05.53.161,visual search task 1,,2025.1.1,120.13058194395053,2025-09-29 18h06.00.323430 +0530,
130,0,130,[np.float64(-0.34444444444444444)],[np.float64(-0.3125)],[1],[0],[0],[1.2011568340094527],['target'],130,0,130,0,174.15974845799792,,10,174.15034012500837,174.15974845799792,174.15974845799792,0.015369540997198783,175.35154600000533,[np.float64(-0.34444444444444444)],[np.float64(-0.3125)],[1],[0],[0],[1.2011568340094527],['target'],Saloni,001,2025-09-29_18h05.53.161,visual search task 1,,2025.1.1,120.13058194395053,2025-09-29 18h06.00.323430 +0530,
131,0,131,[np.float64(0.15555555555555556)],[np.float64(-0.3138888888888889)],[1],[0],[0],[0.9932888750045095],['target'],131,0,131,0,175.36615562500083,,5,175.35951112500334,175.36615562500083,175.36615562500083,0.00785229199391324,176.35286366600485,[np.float64(0.15555555555555556)],[np.float64(-0.3138888888888889)],[1],[0],[0],[0.9932888750045095],['target'],Saloni,001,2025-09-29_18h05.53.161,visual search task 1,,2025.1.1,120.13058194395053,2025-09-29 18h06.00.323430 +0530,
132,0,132,[np.float64(0.1875)],[np.float64(0.30694444444444446)],[1],[0],[0],[1.239993625000352],['target'],132,0,132,0,176.37092800000391,,5,176.36290849999932,176.37092800000391,176.37092800000391,0.009929500010912307,177.6029620830086,[np.float64(0.1875)],[np.float64(0.30694444444444446)],[1],[0],[0],[1.239993625000352],['target'],Saloni,001,2025-09-29_18h05.53.161,visual search task 1,,2025.1.1,120.13058194395053,2025-09-29 18h06.00.323430 +0530,
133,0,133,[np.float64(-0.33055555555555555)],[np.float64(0.03611111111111111)],[1],[0],[0],[0.9885219589923508],['target'],133,0,133,0,177.62136783299502,,5,177.61339549999684,177.62136783299502,177.62136783299502,0.010302583003067411,178.60198687500088,[np.float64(-0.33055555555555555)],[np.float64(0.03611111111111111)],[1],[0],[0],[0.9885219589923508],['target'],Saloni,001,2025-09-29_18h05.53.161,visual search task 1,,2025.1.1,120.13058194395053,2025-09-29 18h06.00.323430 +0530,
134,0,134,[np.float64(-0.39444444444444443)],[np.float64(0.030555555555555555)],[1],[0],[0],[1.1312771670054644],['target'],134,0,134,0,178.6312123749958,,10,178.62047312500363,178.6312123749958,178.6312123749958,0.018370000005234033,179.75179862500227,[np.float64(-0.39444444444444443)],[np.float64(0.030555555555555555)],[1],[0],[0],[1.1312771670054644],['target'],Saloni,001,2025-09-29_18h05.53.161,visual search task 1,,2025.1.1,120.13058194395053,2025-09-29 18h06.00.323430 +0530,
135,0,135,[np.float64(0.42777777777777776)],[np.float64(-0.14305555555555555)],[1],[0],[0],[1.510020000001532],['target'],135,0,135,0,179.76744883300853,,5,179.76013624999905,179.76744883300853,179.76744883300853,0.008215042005758733,181.27020666599856,[np.float64(0.42777777777777776)],[np.float64(-0.14305555555555555)],[1],[0],[0],[1.510020000001532],['target'],Saloni,001,2025-09-29_18h05.53.161,visual search task 1,,2025.1.1,120.13058194395053,2025-09-29 18h06.00.323430 +0530,
136,0,136,[np.float64(0.06805555555555555)],[np.float64(-0.23194444444444445)],[1],[0],[0],[0.8711164999986067],['target'],136,0,136,0,181.28932037499908,,5,181.28079808299663,181.28932037499908,181.28932037499908,0.010481374993105419,182.15197545800766,[np.float64(0.06805555555555555)],[np.float64(-0.23194444444444445)],[1],[0],[0],[0.8711164999986067],['target'],Saloni,001,2025-09-29_18h05.53.161,visual search task 1,,2025.1.1,120.13058194395053,2025-09-29 18h06.00.323430 +0530,
137,0,137,[np.float64(-0.24027777777777778)],[np.float64(0.4666666666666667)],[1],[0],[0],[2.2636890419962583],['target'],137,0,137,0,182.1815921660018,,10,182.17136495800514,182.1815921660018,182.1815921660018,0.01926054200157523,184.43509187499876,[np.float64(-0.24027777777777778)],[np.float64(0.4666666666666667)],[1],[0],[0],[2.2636890419962583],['target'],Saloni,001,2025-09-29_18h05.53.161,visual search task 1,,2025.1.1,120.13058194395053,2025-09-29 18h06.00.323430 +0530,
138,0,138,[np.float64(0.34305555555555556)],[np.float64(0.24444444444444444)],[1],[0],[0],[2.419585499999812],['target'],138,0,138,0,184.4581865000073,,10,184.449156415998,184.4581865000073,184.4581865000073,0.013960083000711165,186.86879700000281,[np.float64(0.34305555555555556)],[np.float64(0.24444444444444444)],[1],[0],[0],[2.419585499999812],['target'],Saloni,001,2025-09-29_18h05.53.161,visual search task 1,,2025.1.1,120.13058194395053,2025-09-29 18h06.00.323430 +0530,
139,0,139,[np.float64(-0.3902777777777778)],[np.float64(-0.03888888888888889)],[1],[0],[0],[1.3182982500002254],['target'],139,0,139,0,186.89217716599524,,10,186.88309312499769,186.89217716599524,186.89217716599524,0.014184083993313834,188.20144333300414,[np.float64(-0.3902777777777778)],[np.float64(-0.03888888888888889)],[1],[0],[0],[1.3182982500002254],['target'],Saloni,001,2025-09-29_18h05.53.161,visual search task 1,,2025.1.1,120.13058194395053,2025-09-29 18h06.00.323430 +0530,
140,0,140,[np.float64(0.3486111111111111)],[np.float64(0.015277777777777777)],[1],[0],[0],[1.020162667002296],['target'],140,0,140,0,188.22582220799814,,10,188.21609149999858,188.22582220799814,188.22582220799814,0.01453787500213366,189.23630000000412,[np.float64(0.3486111111111111)],[np.float64(0.015277777777777777)],[1],[0],[0],[1.020162667002296],['target'],Saloni,001,2025-09-29_18h05.53.161,visual search task 1,,2025.1.1,120.13058194395053,2025-09-29 18h06.00.323430 +0530,
141,0,141,[np.float64(0.008333333333333333)],[np.float64(0.2388888888888889)],[1],[0],[0],[2.2845352919975994],['target'],141,0,141,0,189.2601029159996,,10,189.25123812499805,189.2601029159996,189.2601029159996,0.014799958007643,191.53582329100755,[np.float64(0.008333333333333333)],[np.float64(0.2388888888888889)],[1],[0],[0],[2.2845352919975994],['target'],Saloni,001,2025-09-29_18h05.53.161,visual search task 1,,2025.1.1,120.13058194395053,2025-09-29 18h06.00.323430 +0530,
142,0,142,[np.float64(-0.058333333333333334)],[np.float64(-0.04583333333333333)],[1],[0],[0],[1.3689931249973597],['target'],142,0,142,0,191.55962216599437,,10,191.55003441599547,191.55962216599437,191.55962216599437,0.014102000001003034,192.91907725000056,[np.float64(-0.058333333333333334)],[np.float64(-0.04583333333333333)],[1],[0],[0],[1.3689931249973597],['target'],Saloni,001,2025-09-29_18h05.53.161,visual search task 1,,2025.1.1,120.13058194395053,2025-09-29 18h06.00.323430 +0530,
143,0,143,[np.float64(0.2111111111111111)],[np.float64(-0.027777777777777776)],[1],[0],[0],[0.8412729579868028],['target'],143,0,143,0,192.93490758299595,,5,192.92767545800598,192.93490758299595,192.93490758299595,0.008489625004585832,193.76900379100698,[np.float64(0.2111111111111111)],[np.float64(-0.027777777777777776)],[1],[0],[0],[0.8412729579868028],['target'],Saloni,001,2025-09-29_18h05.53.161,visual search task 1,,2025.1.1,120.13058194395053,2025-09-29 18h06.00.323430 +0530,
144,0,144,[np.float64(0.22777777777777777)],[np.float64(0.03333333333333333)],[1],[0],[0],[0.7807115000032354],['target'],144,0,144,0,193.79832924999937,,10,193.78795758300112,193.79832924999937,193.79832924999937,0.018823457998223603,194.568727165999,[np.float64(0.22777777777777777)],[np.float64(0.03333333333333333)],[1],[0],[0],[0.7807115000032354],['target'],Saloni,001,2025-09-29_18h05.53.161,visual search task 1,,2025.1.1,120.13058194395053,2025-09-29 18h06.00.323430 +0530,
145,0,145,[np.float64(0.19166666666666668)],[np.float64(0.4527777777777778)],[1],[0],[0],[1.4928737500013085],['target'],145,0,145,0,194.58427824999671,,5,194.57710762499482,194.58427824999671,194.58427824999671,0.0082528749917401,196.07006383300177,[np.float64(0.19166666666666668)],[np.float64(0.4527777777777778)],[1],[0],[0],[1.4928737500013085],['target'],Saloni,001,2025-09-29_18h05.53.161,visual search task 1,,2025.1.1,120.13058194395053,2025-09-29 18h06.00.323430 +0530,
146,0,146,[np.float64(0.4888888888888889)],[np.float64(-0.1625)],[1],[0],[0],[1.2471329169929959],['target'],146,0,146,0,196.0990721660055,,10,196.08877816599852,196.0990721660055,196.0990721660055,0.018583583005238324,197.3359644160082,[np.float64(0.4888888888888889)],[np.float64(-0.1625)],[1],[0],[0],[1.2471329169929959],['target'],Saloni,001,2025-09-29_18h05.53.161,visual search task 1,,2025.1.1,120.13058194395053,2025-09-29 18h06.00.323430 +0530,
147,0,147,[np.float64(-0.39861111111111114)],[np.float64(0.4083333333333333)],[1],[0],[0],[1.824945457992726],['target'],147,0,147,0,197.35261262500717,,5,197.34528516599676,197.35261262500717,197.35261262500717,0.009182707988657057,199.17029583299882,[np.float64(-0.39861111111111114)],[np.float64(0.4083333333333333)],[1],[0],[0],[1.824945457992726],['target'],Saloni,001,2025-09-29_18h05.53.161,visual search task 1,,2025.1.1,120.13058194395053,2025-09-29 18h06.00.323430 +0530,
148,0,148,[np.float64(-0.4486111111111111)],[np.float64(0.2263888888888889)],[1],[0],[0],[1.264747916997294],['target'],148,0,148,0,199.1978824580001,,10,199.18792179100274,199.1978824580001,199.1978824580001,0.017510707999463193,200.4527212910034,[np.float64(-0.4486111111111111)],[np.float64(0.2263888888888889)],[1],[0],[0],[1.264747916997294],['target'],Saloni,001,2025-09-29_18h05.53.161,visual search task 1,,2025.1.1,120.13058194395053,2025-09-29 18h06.00.323430 +0530,
149,0,149,[np.float64(0.125)],[np.float64(0.3236111111111111)],[1],[0],[0],[1.1413455000001704],['target'],149,0,149,0,200.4689309999958,,5,200.4617765830044,200.4689309999958,200.4689309999958,0.008932958007790148,201.60319512500428,[np.float64(0.125)],[np.float64(0.3236111111111111)],[1],[0],[0],[1.1413455000001704],['target'],Saloni,001,2025-09-29_18h05.53.161,visual search task 1,,2025.1.1,120.13058194395053,2025-09-29 18h06.00.323430 +0530,
150,0,150,[np.float64(-0.39305555555555555)],[np.float64(-0.03333333333333333)],[1],[0],[0],[1.0058724580012495],['target'],150,0,150,0,201.62195941600658,,5,201.61365800000203,201.62195941600658,201.62195941600658,0.010333250000257976,202.61960108300264,[np.float64(-0.39305555555555555)],[np.float64(-0.03333333333333333)],[1],[0],[0],[1.0058724580012495],['target'],Saloni,001,2025-09-29_18h05.53.161,visual search task 1,,2025.1.1,120.13058194395053,2025-09-29 18h06.00.323430 +0530,
151,0,151,[np.float64(-0.24444444444444444)],[np.float64(0.1875)],[1],[0],[0],[1.3140605829976266],['target'],151,0,151,0,202.64832595799817,,10,202.63815300000715,202.64832595799817,202.64832595799817,0.018416209000861272,203.95225554100762,[np.float64(-0.24444444444444444)],[np.float64(0.1875)],[1],[0],[0],[1.3140605829976266],['target'],Saloni,001,2025-09-29_18h05.53.161,visual search task 1,,2025.1.1,120.13058194395053,2025-09-29 18h06.00.323430 +0530,
152,0,152,[np.float64(0.3611111111111111)],[np.float64(-0.175)],[1],[0],[0],[1.009894874994643],['target'],152,0,152,0,203.96724220800388,,5,203.96047887500026,203.96724220800388,203.96724220800388,0.00810520799132064,204.97044824999466,[np.float64(0.3611111111111111)],[np.float64(-0.175)],[1],[0],[0],[1.009894874994643],['target'],Saloni,001,2025-09-29_18h05.53.161,visual search task 1,,2025.1.1,120.13058194395053,2025-09-29 18h06.00.323430 +0530,
153,0,153,[np.float64(-0.3472222222222222)],[np.float64(0.075)],[1],[0],[0],[0.9044800830015447],['target'],153,0,153,0,204.99042558300425,,5,204.98157495800115,204.99042558300425,204.99042558300425,0.011000375001458451,205.8861116659973,[np.float64(-0.3472222222222222)],[np.float64(0.075)],[1],[0],[0],[0.9044800830015447],['target'],Saloni,001,2025-09-29_18h05.53.161,visual search task 1,,2025.1.1,120.13058194395053,2025-09-29 18h06.00.323430 +0530,
154,0,154,[np.float64(-0.22916666666666666)],[np.float64(0.41944444444444445)],[1],[0],[0],[1.4308802089944948],['target'],154,0,154,0,205.91504312500183,,10,205.90482512500603,205.91504312500183,205.91504312500183,0.018588417005958036,207.33574791600404,[np.float64(-0.22916666666666666)],[np.float64(0.41944444444444445)],[1],[0],[0],[1.4308802089944948],['target'],Saloni,001,2025-09-29_18h05.53.161,visual search task 1,,2025.1.1,120.13058194395053,2025-09-29 18h06.00.323430 +0530,
155,0,155,[np.float64(0.125)],[np.float64(0.28194444444444444)],[1],[0],[0],[2.042505417004577],['target'],155,0,155,0,207.35182554100174,,5,207.34473820800486,207.35182554100174,207.35182554100174,0.008870416990248486,209.38730933300394,[np.float64(0.125)],[np.float64(0.28194444444444444)],[1],[0],[0],[2.042505417004577],['target'],Saloni,001,2025-09-29_18h05.53.161,visual search task 1,,2025.1.1,120.13058194395053,2025-09-29 18h06.00.323430 +0530,
156,0,156,[np.float64(0.20972222222222223)],[np.float64(0.0875)],[1],[0],[0],[0.9721154159924481],['target'],156,0,156,0,209.40480383300746,,5,209.397301332996,209.40480383300746,209.40480383300746,0.009875667004962452,210.36947616600082,[np.float64(0.20972222222222223)],[np.float64(0.0875)],[1],[0],[0],[0.9721154159924481],['target'],Saloni,001,2025-09-29_18h05.53.161,visual search task 1,,2025.1.1,120.13058194395053,2025-09-29 18h06.00.323430 +0530,
157,0,157,[np.float64(-0.24444444444444444)],[np.float64(-0.4263888888888889)],[1],[0],[0],[1.1564944580022711],['target'],157,0,157,0,210.38818974999595,,5,210.3799877499987,210.38818974999595,210.38818974999595,0.010382167005445808,211.53654437500518,[np.float64(-0.24444444444444444)],[np.float64(-0.4263888888888889)],[1],[0],[0],[1.1564944580022711],['target'],Saloni,001,2025-09-29_18h05.53.161,visual search task 1,,2025.1.1,120.13058194395053,2025-09-29 18h06.00.323430 +0530,
158,0,158,[np.float64(-0.3416666666666667)],[np.float64(-0.2875)],[1],[0],[0],[0.9395882499957224],['target'],158,0,158,0,211.55478404099995,,5,211.5469029579981,211.55478404099995,211.55478404099995,0.010246624995488673,212.4865470000077,[np.float64(-0.3416666666666667)],[np.float64(-0.2875)],[1],[0],[0],[0.9395882499957224],['target'],Saloni,001,2025-09-29_18h05.53.161,visual search task 1,,2025.1.1,120.13058194395053,2025-09-29 18h06.00.323430 +0530,
159,0,159,[np.float64(0.35555555555555557)],[np.float64(0.25416666666666665)],[1],[0],[0],[1.1225538340077037],['target'],159,0,159,0,212.50475208299758,,5,212.49711650000245,212.50475208299758,212.50475208299758,0.010415708005893975,213.619731083003,[np.float64(0.35555555555555557)],[np.float64(0.25416666666666665)],[1],[0],[0],[1.1225538340077037],['target'],Saloni,001,2025-09-29_18h05.53.161,visual search task 1,,2025.1.1,120.13058194395053,2025-09-29 18h06.00.323430 +0530,
160,0,160,[np.float64(0.1763888888888889)],[np.float64(-0.1527777777777778)],[1],[0],[0],[1.0304410829994595],['target'],160,0,160,0,213.64890962500067,,10,213.63885054099956,213.64890962500067,213.64890962500067,0.01899129200319294,214.66933570800757,[np.float64(0.1763888888888889)],[np.float64(-0.1527777777777778)],[1],[0],[0],[1.0304410829994595],['target'],Saloni,001,2025-09-29_18h05.53.161,visual search task 1,,2025.1.1,120.13058194395053,2025-09-29 18h06.00.323430 +0530,
161,0,161,[np.float64(0.11944444444444445)],[np.float64(0.0763888888888889)],[1],[0],[0],[1.1685143749928102],['target'],161,0,161,0,214.6932397079945,,10,214.68419483299658,214.6932397079945,214.6932397079945,0.014749750000191852,215.85275266600365,[np.float64(0.11944444444444445)],[np.float64(0.0763888888888889)],[1],[0],[0],[1.1685143749928102],['target'],Saloni,001,2025-09-29_18h05.53.161,visual search task 1,,2025.1.1,120.13058194395053,2025-09-29 18h06.00.323430 +0530,
162,0,162,[np.float64(-0.33611111111111114)],[np.float64(0.4666666666666667)],[1],[0],[0],[1.5417445000057342],['target'],162,0,162,0,215.86751129099866,,5,215.86091291600314,215.86751129099866,215.86751129099866,0.00805062499421183,217.40271412499715,[np.float64(-0.33611111111111114)],[np.float64(0.4666666666666667)],[1],[0],[0],[1.5417445000057342],['target'],Saloni,001,2025-09-29_18h05.53.161,visual search task 1,,2025.1.1,120.13058194395053,2025-09-29 18h06.00.323430 +0530,
163,0,163,[np.float64(0.13333333333333333)],[np.float64(0.37777777777777777)],[1],[0],[0],[0.8906099170126254],['target'],163,0,163,0,217.42061404099513,,5,217.41271254100138,217.42061404099513,217.42061404099513,0.009881999998469837,218.3033835410024,[np.float64(0.13333333333333333)],[np.float64(0.37777777777777777)],[1],[0],[0],[0.8906099170126254],['target'],Saloni,001,2025-09-29_18h05.53.161,visual search task 1,,2025.1.1,120.13058194395053,2025-09-29 18h06.00.323430 +0530,
164,0,164,[np.float64(-0.016666666666666666)],[np.float64(0.24861111111111112)],[1],[0],[0],[1.4816168749966891],['target'],164,0,164,0,218.3312047500076,,10,218.32101108299685,218.3312047500076,218.3312047500076,0.01751125000009779,219.80267033299606,[np.float64(-0.016666666666666666)],[np.float64(0.24861111111111112)],[1],[0],[0],[1.4816168749966891],['target'],Saloni,001,2025-09-29_18h05.53.161,visual search task 1,,2025.1.1,120.13058194395053,2025-09-29 18h06.00.323430 +0530,
165,0,165,[np.float64(0.37083333333333335)],[np.float64(0.17222222222222222)],[1],[0],[0],[1.3930253339931369],['target'],165,0,165,0,219.81878620800853,,5,219.81127562500478,219.81878620800853,219.81878620800853,0.008496374997776002,221.20437150000362,[np.float64(0.37083333333333335)],[np.float64(0.17222222222222222)],[1],[0],[0],[1.3930253339931369],['target'],Saloni,001,2025-09-29_18h05.53.161,visual search task 1,,2025.1.1,120.13058194395053,2025-09-29 18h06.00.323430 +0530,
166,0,166,[np.float64(-0.4125)],[np.float64(0.12222222222222222)],[1],[0],[0],[1.2893524579994846],['target'],166,0,166,0,221.2223108330072,,5,221.21477474999847,221.2223108330072,221.2223108330072,0.010271958002704196,222.50419895800587,[np.float64(-0.4125)],[np.float64(0.12222222222222222)],[1],[0],[0],[1.2893524579994846],['target'],Saloni,001,2025-09-29_18h05.53.161,visual search task 1,,2025.1.1,120.13058194395053,2025-09-29 18h06.00.323430 +0530,
167,0,167,[np.float64(0.3)],[np.float64(-0.3736111111111111)],[1],[0],[0],[1.76322095800424],['target'],167,0,167,0,222.53313720799633,,10,222.52258033299586,222.53313720799633,222.53313720799633,0.01824995801143814,224.28583720800816,[np.float64(0.3)],[np.float64(-0.3736111111111111)],[1],[0],[0],[1.76322095800424],['target'],Saloni,001,2025-09-29_18h05.53.161,visual search task 1,,2025.1.1,120.13058194395053,2025-09-29 18h06.00.323430 +0530,
168,0,168,[np.float64(0.20972222222222223)],[np.float64(-0.3263888888888889)],[1],[0],[0],[1.3523458749987185],['target'],168,0,168,0,224.30940404100693,,10,224.30039520800347,224.30940404100693,224.30940404100693,0.014439124992350116,225.6527873330051,[np.float64(0.20972222222222223)],[np.float64(-0.3263888888888889)],[1],[0],[0],[1.3523458749987185],['target'],Saloni,001,2025-09-29_18h05.53.161,visual search task 1,,2025.1.1,120.13058194395053,2025-09-29 18h06.00.323430 +0530,
169,0,169,[np.float64(0.2986111111111111)],[np.float64(0.043055555555555555)],[1],[0],[0],[1.026113667001482],['target'],169,0,169,0,225.6674822079949,,5,225.66052350000245,225.6674822079949,225.6674822079949,0.007619999989401549,226.6866952499986,[np.float64(0.2986111111111111)],[np.float64(0.043055555555555555)],[1],[0],[0],[1.026113667001482],['target'],Saloni,001,2025-09-29_18h05.53.161,visual search task 1,,2025.1.1,120.13058194395053,2025-09-29 18h06.00.323430 +0530,
170,0,170,[np.float64(-0.12638888888888888)],[np.float64(-0.14722222222222223)],[1],[0],[0],[1.2487175830028718],['target'],170,0,170,0,226.7146227080084,,10,226.70467158300744,226.7146227080084,226.7146227080084,0.017863417000626214,227.95342950000486,[np.float64(-0.12638888888888888)],[np.float64(-0.14722222222222223)],[1],[0],[0],[1.2487175830028718],['target'],Saloni,001,2025-09-29_18h05.53.161,visual search task 1,,2025.1.1,120.13058194395053,2025-09-29 18h06.00.323430 +0530,
171,0,171,[np.float64(0.32083333333333336)],[np.float64(-0.13472222222222222)],[1],[0],[0],[0.9743911660043523],['target'],171,0,171,0,227.9699035000085,,5,227.96247920799942,227.9699035000085,227.9699035000085,0.008930374999181367,228.93692879100854,[np.float64(0.32083333333333336)],[np.float64(-0.13472222222222222)],[1],[0],[0],[0.9743911660043523],['target'],Saloni,001,2025-09-29_18h05.53.161,visual search task 1,,2025.1.1,120.13058194395053,2025-09-29 18h06.00.323430 +0530,
172,0,172,[np.float64(-0.27361111111111114)],[np.float64(0.29305555555555557)],[1],[0],[0],[1.6057031670061406],['target'],172,0,172,0,228.9564833750046,,5,228.94790954100608,228.9564833750046,228.9564833750046,0.010851875005755574,230.55367054100498,[np.float64(-0.27361111111111114)],[np.float64(0.29305555555555557)],[1],[0],[0],[1.6057031670061406],['target'],Saloni,001,2025-09-29_18h05.53.161,visual search task 1,,2025.1.1,120.13058194395053,2025-09-29 18h06.00.323430 +0530,
173,0,173,[np.float64(-0.06944444444444445)],[np.float64(-0.34305555555555556)],[1],[0],[0],[1.1409839580010157],['target'],173,0,173,0,230.57045258300786,,5,230.56297733300016,230.57045258300786,230.57045258300786,0.009202957997331396,231.70403033299954,[np.float64(-0.06944444444444445)],[np.float64(-0.34305555555555556)],[1],[0],[0],[1.1409839580010157],['target'],Saloni,001,2025-09-29_18h05.53.161,visual search task 1,,2025.1.1,120.13058194395053,2025-09-29 18h06.00.323430 +0530,
174,0,174,[np.float64(-0.0125)],[np.float64(0.02638888888888889)],[1],[0],[0],[2.004820749993087],['target'],174,0,174,0,231.72474795799644,,5,231.71596108299855,231.72474795799644,231.72474795799644,0.011786999995820224,233.7208537080005,[np.float64(-0.0125)],[np.float64(0.02638888888888889)],[1],[0],[0],[2.004820749993087],['target'],Saloni,001,2025-09-29_18h05.53.161,visual search task 1,,2025.1.1,120.13058194395053,2025-09-29 18h06.00.323430 +0530,
175,0,175,[np.float64(-0.43194444444444446)],[np.float64(0.42777777777777776)],[1],[0],[0],[1.2895735000056447],['target'],175,0,175,0,233.73903195800085,,5,233.73148616599792,233.73903195800085,233.73903195800085,0.010501000011572614,235.02113620800083,[np.float64(-0.43194444444444446)],[np.float64(0.42777777777777776)],[1],[0],[0],[1.2895735000056447],['target'],Saloni,001,2025-09-29_18h05.53.161,visual search task 1,,2025.1.1,120.13058194395053,2025-09-29 18h06.00.323430 +0530,
176,0,176,[np.float64(0.23194444444444445)],[np.float64(-0.1597222222222222)],[1],[0],[0],[1.0792837079934543],['target'],176,0,176,0,235.05123825000192,,10,235.04058545800217,235.05123825000192,235.05123825000192,0.019321416999446228,236.11991541599855,[np.float64(0.23194444444444445)],[np.float64(-0.1597222222222222)],[1],[0],[0],[1.0792837079934543],['target'],Saloni,001,2025-09-29_18h05.53.161,visual search task 1,,2025.1.1,120.13058194395053,2025-09-29 18h06.00.323430 +0530,
177,0,177,[np.float64(0.29305555555555557)],[np.float64(0.3958333333333333)],[1],[0],[0],[1.3101839169976301],['target'],177,0,177,0,236.13486308300344,,5,236.1277719159989,236.13486308300344,236.13486308300344,0.007743458001641557,237.43803095800104,[np.float64(0.29305555555555557)],[np.float64(0.3958333333333333)],[1],[0],[0],[1.3101839169976301],['target'],Saloni,001,2025-09-29_18h05.53.161,visual search task 1,,2025.1.1,120.13058194395053,2025-09-29 18h06.00.323430 +0530,
178,0,178,[np.float64(0.3472222222222222)],[np.float64(-0.15416666666666667)],[1],[0],[0],[1.4151077080023242],['target'],178,0,178,0,237.4669861660077,,10,237.45646395800577,237.4669861660077,237.4669861660077,0.0183070829953067,238.87162383299437,[np.float64(0.3472222222222222)],[np.float64(-0.15416666666666667)],[1],[0],[0],[1.4151077080023242],['target'],Saloni,001,2025-09-29_18h05.53.161,visual search task 1,,2025.1.1,120.13058194395053,2025-09-29 18h06.00.323430 +0530,
179,0,179,[np.float64(-0.08194444444444444)],[np.float64(-0.07222222222222222)],[1],[0],[0],[0.874783541992656],['target'],179,0,179,0,238.88681804100634,,5,238.88002245800453,238.88681804100634,238.88681804100634,0.008251833991380408,239.75487966599758,[np.float64(-0.08194444444444444)],[np.float64(-0.07222222222222222)],[1],[0],[0],[0.874783541992656],['target'],Saloni,001,2025-09-29_18h05.53.161,visual search task 1,,2025.1.1,120.13058194395053,2025-09-29 18h06.00.323430 +0530,
180,0,180,[np.float64(0.15833333333333333)],[np.float64(-0.24722222222222223)],[1],[0],[0],[1.2221627090038965],['target'],180,0,180,0,239.77370150000206,,5,239.76538720799726,239.77370150000206,239.77370150000206,0.010376791004091501,240.98760887500248,[np.float64(0.15833333333333333)],[np.float64(-0.24722222222222223)],[1],[0],[0],[1.2221627090038965],['target'],Saloni,001,2025-09-29_18h05.53.161,visual search task 1,,2025.1.1,120.13058194395053,2025-09-29 18h06.00.323430 +0530,
181,0,181,[np.float64(-0.35138888888888886)],[np.float64(-0.3194444444444444)],[1],[0],[0],[1.3959575000044424],['target'],181,0,181,0,241.01842891599517,,10,241.00770066599944,241.01842891599517,241.01842891599517,0.019962750011472963,242.4037018329982,[np.float64(-0.35138888888888886)],[np.float64(-0.3194444444444444)],[1],[0],[0],[1.3959575000044424],['target'],Saloni,001,2025-09-29_18h05.53.161,visual search task 1,,2025.1.1,120.13058194395053,2025-09-29 18h06.00.323430 +0530,
182,0,182,[np.float64(-0.075)],[np.float64(-0.009722222222222222)],[1],[0],[0],[1.0699400839948794],['target'],182,0,182,0,242.42808820800565,,10,242.41860220799572,242.42808820800565,242.42808820800565,0.014789916996960528,243.48859737500607,[np.float64(-0.075)],[np.float64(-0.009722222222222222)],[1],[0],[0],[1.0699400839948794],['target'],Saloni,001,2025-09-29_18h05.53.161,visual search task 1,,2025.1.1,120.13058194395053,2025-09-29 18h06.00.323430 +0530,
183,0,183,[np.float64(-0.4638888888888889)],[np.float64(-0.2763888888888889)],[1],[0],[0],[1.8664573749992996],['target'],183,0,183,0,243.5137677909952,,10,243.50427962500544,243.5137677909952,243.5137677909952,0.01556520898884628,245.37078720799764,[np.float64(-0.4638888888888889)],[np.float64(-0.2763888888888889)],[1],[0],[0],[1.8664573749992996],['target'],Saloni,001,2025-09-29_18h05.53.161,visual search task 1,,2025.1.1,120.13058194395053,2025-09-29 18h06.00.323430 +0530,
184,0,184,[np.float64(-0.40694444444444444)],[np.float64(-0.35694444444444445)],[1],[0],[0],[1.3686137079930631],['target'],184,0,184,0,245.39474812500703,,10,245.3854006659967,245.39474812500703,245.39474812500703,0.0145015829912154,246.75406812499568,[np.float64(-0.40694444444444444)],[np.float64(-0.35694444444444445)],[1],[0],[0],[1.3686137079930631],['target'],Saloni,001,2025-09-29_18h05.53.161,visual search task 1,,2025.1.1,120.13058194395053,2025-09-29 18h06.00.323430 +0530,
185,0,185,[np.float64(-0.3486111111111111)],[np.float64(-0.22777777777777777)],[1],[0],[0],[1.2675631659949431],['target'],185,0,185,0,246.77903575000528,,10,246.76946979100467,246.77903575000528,246.77903575000528,0.01527658398845233,248.0370835000067,[np.float64(-0.3486111111111111)],[np.float64(-0.22777777777777777)],[1],[0],[0],[1.2675631659949431],['target'],Saloni,001,2025-09-29_18h05.53.161,visual search task 1,,2025.1.1,120.13058194395053,2025-09-29 18h06.00.323430 +0530,
186,0,186,[np.float64(0.06805555555555555)],[np.float64(-0.17777777777777778)],[1],[0],[0],[1.7526429580029799],['target'],186,0,186,0,248.0615608329972,,10,248.05200150000746,248.0615608329972,248.0615608329972,0.014805500002694316,249.8046942910005,[np.float64(0.06805555555555555)],[np.float64(-0.17777777777777778)],[1],[0],[0],[1.7526429580029799],['target'],Saloni,001,2025-09-29_18h05.53.161,visual search task 1,,2025.1.1,120.13058194395053,2025-09-29 18h06.00.323430 +0530,
187,0,187,[np.float64(-0.15416666666666667)],[np.float64(-0.0625)],[1],[0],[0],[1.225223041998106],['target'],187,0,187,0,249.81948545800697,,5,249.81259225000395,249.81948545800697,249.81948545800697,0.007784958012052812,251.0378757080034,[np.float64(-0.15416666666666667)],[np.float64(-0.0625)],[1],[0],[0],[1.225223041998106],['target'],Saloni,001,2025-09-29_18h05.53.161,visual search task 1,,2025.1.1,120.13058194395053,2025-09-29 18h06.00.323430 +0530,
188,0,188,[np.float64(-0.0375)],[np.float64(0.05)],[1],[0],[0],[0.7982332499959739],['target'],188,0,188,0,251.06569641600072,,10,251.05571637500543,251.06569641600072,251.06569641600072,0.01772654100204818,251.85398866600008,[np.float64(-0.0375)],[np.float64(0.05)],[1],[0],[0],[0.7982332499959739],['target'],Saloni,001,2025-09-29_18h05.53.161,visual search task 1,,2025.1.1,120.13058194395053,2025-09-29 18h06.00.323430 +0530,
189,0,189,[np.float64(-0.24583333333333332)],[np.float64(-0.03194444444444444)],[1],[0],[0],[0.7588376670028083],['target'],189,0,189,0,251.87002529100573,,5,251.86274237500038,251.87002529100573,251.87002529100573,0.008634707992314361,252.62165395800548,[np.float64(-0.24583333333333332)],[np.float64(-0.03194444444444444)],[1],[0],[0],[0.7588376670028083],['target'],Saloni,001,2025-09-29_18h05.53.161,visual search task 1,,2025.1.1,120.13058194395053,2025-09-29 18h06.00.323430 +0530,
190,0,190,[np.float64(0.46944444444444444)],[np.float64(-0.2361111111111111)],[1],[0],[0],[1.3725463750015479],['target'],190,0,190,0,252.63993620799738,,5,252.63196304099984,252.63993620799738,252.63993620799738,0.010177874995861202,254.00457383300818,[np.float64(0.46944444444444444)],[np.float64(-0.2361111111111111)],[1],[0],[0],[1.3725463750015479],['target'],Saloni,001,2025-09-29_18h05.53.161,visual search task 1,,2025.1.1,120.13058194395053,2025-09-29 18h06.00.323430 +0530,
191,0,191,[np.float64(0.45555555555555555)],[np.float64(-0.44583333333333336)],[1],[0],[0],[1.6913915000041015],['target'],191,0,191,0,254.02316320799582,,5,254.01487454099697,254.02316320799582,254.02316320799582,0.010187125008087605,255.70633179100696,[np.float64(0.45555555555555555)],[np.float64(-0.44583333333333336)],[1],[0],[0],[1.6913915000041015],['target'],Saloni,001,2025-09-29_18h05.53.161,visual search task 1,,2025.1.1,120.13058194395053,2025-09-29 18h06.00.323430 +0530,
192,0,192,[np.float64(0.13194444444444445)],[np.float64(-0.05694444444444444)],[1],[0],[0],[1.209577875008108],['target'],192,0,192,0,255.73926145800215,,10,255.72765075000643,255.73926145800215,255.73926145800215,0.02117541698680725,256.93727220800065,[np.float64(0.13194444444444445)],[np.float64(-0.05694444444444444)],[1],[0],[0],[1.209577875008108],['target'],Saloni,001,2025-09-29_18h05.53.161,visual search task 1,,2025.1.1,120.13058194395053,2025-09-29 18h06.00.323430 +0530,
193,0,193,[np.float64(-0.4152777777777778)],[np.float64(0.35138888888888886)],[1],[0],[0],[2.151696250002715],['target'],193,0,193,0,256.96192241599783,,10,256.95264270799817,256.96192241599783,256.96192241599783,0.015258290994097479,259.10438929099473,[np.float64(-0.4152777777777778)],[np.float64(0.35138888888888886)],[1],[0],[0],[2.151696250002715],['target'],Saloni,001,2025-09-29_18h05.53.161,visual search task 1,,2025.1.1,120.13058194395053,2025-09-29 18h06.00.323430 +0530,
194,0,194,[np.float64(0.4)],[np.float64(0.24027777777777778)],[1],[0],[0],[1.2923989160044584],['target'],194,0,194,0,259.1195754579967,,5,259.1125160000083,259.1195754579967,259.1195754579967,0.007980082998983562,260.4049852080061,[np.float64(0.4)],[np.float64(0.24027777777777778)],[1],[0],[0],[1.2923989160044584],['target'],Saloni,001,2025-09-29_18h05.53.161,visual search task 1,,2025.1.1,120.13058194395053,2025-09-29 18h06.00.323430 +0530,
195,0,195,[np.float64(0.4513888888888889)],[np.float64(-0.2847222222222222)],[1],[0],[0],[1.3894186669931514],['target'],195,0,195,0,260.42348520799715,,5,260.4152151659946,260.42348520799715,260.42348520799715,0.010115042008692399,261.80470291600795,[np.float64(0.4513888888888889)],[np.float64(-0.2847222222222222)],[1],[0],[0],[1.3894186669931514],['target'],Saloni,001,2025-09-29_18h05.53.161,visual search task 1,,2025.1.1,120.13058194395053,2025-09-29 18h06.00.323430 +0530,
196,0,196,[np.float64(-0.42777777777777776)],[np.float64(0.044444444444444446)],[1],[0],[0],[1.0392255000042496],['target'],196,0,196,0,261.8235280000081,,5,261.8158723749948,261.8235280000081,261.8235280000081,0.011054959002649412,262.8551651250018,[np.float64(-0.42777777777777776)],[np.float64(0.044444444444444446)],[1],[0],[0],[1.0392255000042496],['target'],Saloni,001,2025-09-29_18h05.53.161,visual search task 1,,2025.1.1,120.13058194395053,2025-09-29 18h06.00.323430 +0530,
197,0,197,"[np.float64(-0.5305555555555556), np.float64(-0.5263888888888889), np.float64(-0.4625), np.float64(-0.5013888888888889)]","[np.float64(-0.3402777777777778), np.float64(-0.34305555555555556), np.float64(-0.35), np.float64(-0.34444444444444444)]","[1, 1, 1, 1]","[0, 0, 0, 0]","[0, 0, 0, 0]","[1.2728999160026433, 1.7558846660103882, 2.2890477500041015, 2.8059912500029895]","[None, None, None, 'target']",197,0,197,0,262.8750092499977,,5,262.8661619159975,262.8750092499977,262.8750092499977,0.010866374999750406,265.67223745799856,"[np.float64(-0.5305555555555556), np.float64(-0.5263888888888889), np.float64(-0.4625), np.float64(-0.5013888888888889)]","[np.float64(-0.3402777777777778), np.float64(-0.34305555555555556), np.float64(-0.35), np.float64(-0.34444444444444444)]","[1, 1, 1, 1]","[0, 0, 0, 0]","[0, 0, 0, 0]","[1.2728999160026433, 1.7558846660103882, 2.2890477500041015, 2.8059912500029895]","[None, None, None, 'target']",Saloni,001,2025-09-29_18h05.53.161,visual search task 1,,2025.1.1,120.13058194395053,2025-09-29 18h06.00.323430 +0530,
198,0,198,[np.float64(0.13472222222222222)],[np.float64(-0.1625)],[1],[0],[0],[1.062299790995894],['target'],198,0,198,0,265.70206245800364,,10,265.6917677909951,265.70206245800364,265.70206245800364,0.01887499999429565,266.75409991599736,[np.float64(0.13472222222222222)],[np.float64(-0.1625)],[1],[0],[0],[1.062299790995894],['target'],Saloni,001,2025-09-29_18h05.53.161,visual search task 1,,2025.1.1,120.13058194395053,2025-09-29 18h06.00.323430 +0530,
199,0,199,[np.float64(0.027777777777777776)],[np.float64(0.16111111111111112)],[1],[0],[0],[1.1760670000076061],['target'],199,0,199,0,266.7695385830011,,5,266.76229825000337,266.7695385830011,266.7695385830011,0.008086583999102004,267.9384336660005,[np.float64(0.027777777777777776)],[np.float64(0.16111111111111112)],[1],[0],[0],[1.1760670000076061],['target'],Saloni,001,2025-09-29_18h05.53.161,visual search task 1,,2025.1.1,120.13058194395053,2025-09-29 18h06.00.323430 +0530,
