thisN,thisTrialN,thisRepN,mouse.x,mouse.y,mouse.leftButton,mouse.midButton,mouse.rightButton,mouse.time,mouse.clicked_name,trials.thisRepN,trials.thisTrialN,trials.thisN,trials.thisIndex,thisRow.t,notes,num_distr,trial.started,fixation.started,target.started,mouse.started,trial.stopped,trials.mouse.x,trials.mouse.y,trials.mouse.leftButton,trials.mouse.midButton,trials.mouse.rightButton,trials.mouse.time,trials.mouse.clicked_name,participant,session,date,expName,expVersion,psychopyVersion,frameRate,expStart,
0,0,0,[np.float64(0.13333333333333333)],[np.float64(-0.25)],[1],[0],[0],[0.9468835000006948],['target'],0,0,0,0,0.0910491670074407,,5,0.07844729200587608,0.0910491670074407,0.0910491670074407,0.07845820800866932,1.0254432920046384,[np.float64(0.13333333333333333)],[np.float64(-0.25)],[1],[0],[0],[0.9468835000006948],['target'],Saloni 2,001,2025-09-29_18h11.11.332,visual search task 1,,2025.1.1,120.45501836320676,2025-09-29 18h19.10.762819 +0530,
1,0,1,[np.float64(-0.1111111111111111)],[np.float64(-0.3)],[1],[0],[0],[1.2230367500014836],['target'],1,0,1,0,1.053408916995977,,10,1.043903792000492,1.053408916995977,1.053408916995977,0.018247583997435868,2.266983124995022,[np.float64(-0.1111111111111111)],[np.float64(-0.3)],[1],[0],[0],[1.2230367500014836],['target'],Saloni 2,001,2025-09-29_18h11.11.332,visual search task 1,,2025.1.1,120.45501836320676,2025-09-29 18h19.10.762819 +0530,
2,0,2,[np.float64(0.5027777777777778)],[np.float64(0.3527777777777778)],[1],[0],[0],[1.307371749993763],['target'],2,0,2,0,2.28290270800062,,5,2.2758932080032537,2.28290270800062,2.28290270800062,0.008785500001977198,3.583336292009335,[np.float64(0.5027777777777778)],[np.float64(0.3527777777777778)],[1],[0],[0],[1.307371749993763],['target'],Saloni 2,001,2025-09-29_18h11.11.332,visual search task 1,,2025.1.1,120.45501836320676,2025-09-29 18h19.10.762819 +0530,
3,0,3,[np.float64(-0.4583333333333333)],[np.float64(-0.18055555555555555)],[1],[0],[0],[1.4561186250066385],['target'],3,0,3,0,3.602655666996725,,5,3.594731999997748,3.602655666996725,3.602655666996725,0.011261000006925315,5.05092200000945,[np.float64(-0.4583333333333333)],[np.float64(-0.18055555555555555)],[1],[0],[0],[1.4561186250066385],['target'],Saloni 2,001,2025-09-29_18h11.11.332,visual search task 1,,2025.1.1,120.45501836320676,2025-09-29 18h19.10.762819 +0530,
4,0,4,[np.float64(0.4625)],[np.float64(0.4305555555555556)],[1],[0],[0],[1.5869790419965284],['target'],4,0,4,0,5.073184791996027,,5,5.063845750002656,5.073184791996027,5.073184791996027,0.012772749993018806,6.65088724999805,[np.float64(0.4625)],[np.float64(0.4305555555555556)],[1],[0],[0],[1.5869790419965284],['target'],Saloni 2,001,2025-09-29_18h11.11.332,visual search task 1,,2025.1.1,120.45501836320676,2025-09-29 18h19.10.762819 +0530,
5,0,5,[np.float64(0.2388888888888889)],[np.float64(0.2569444444444444)],[1],[0],[0],[1.088210333007737],['target'],5,0,5,0,6.670655499998247,,5,6.661979958007578,6.670655499998247,6.670655499998247,0.010952708005788736,7.750260792003246,[np.float64(0.2388888888888889)],[np.float64(0.2569444444444444)],[1],[0],[0],[1.088210333007737],['target'],Saloni 2,001,2025-09-29_18h11.11.332,visual search task 1,,2025.1.1,120.45501836320676,2025-09-29 18h19.10.762819 +0530,
6,0,6,[np.float64(-0.0375)],[np.float64(-0.4388888888888889)],[1],[0],[0],[1.696412124991184],['target'],6,0,6,0,7.779544207995059,,10,7.769760958006373,7.779544207995059,7.779544207995059,0.01936195899907034,9.466218041998218,[np.float64(-0.0375)],[np.float64(-0.4388888888888889)],[1],[0],[0],[1.696412124991184],['target'],Saloni 2,001,2025-09-29_18h11.11.332,visual search task 1,,2025.1.1,120.45501836320676,2025-09-29 18h19.10.762819 +0530,
7,0,7,[np.float64(-0.3347222222222222)],[np.float64(-0.06944444444444445)],[1],[0],[0],[0.9660553749999963],['target'],7,0,7,0,9.493600707995938,,10,9.483856582999579,9.493600707995938,9.493600707995938,0.017497166991233826,10.449967583001126,[np.float64(-0.3347222222222222)],[np.float64(-0.06944444444444445)],[1],[0],[0],[0.9660553749999963],['target'],Saloni 2,001,2025-09-29_18h11.11.332,visual search task 1,,2025.1.1,120.45501836320676,2025-09-29 18h19.10.762819 +0530,
8,0,8,[np.float64(0.17083333333333334)],[np.float64(-0.08611111111111111)],[1],[0],[0],[0.975093624991132],['target'],8,0,8,0,10.46544695799821,,5,10.45872683300695,10.46544695799821,10.46544695799821,0.00863383398973383,11.433891374996165,[np.float64(0.17083333333333334)],[np.float64(-0.08611111111111111)],[1],[0],[0],[0.975093624991132],['target'],Saloni 2,001,2025-09-29_18h11.11.332,visual search task 1,,2025.1.1,120.45501836320676,2025-09-29 18h19.10.762819 +0530,
9,0,9,[np.float64(0.2722222222222222)],[np.float64(-0.1638888888888889)],[1],[0],[0],[0.8551734159991611],['target'],9,0,9,0,11.454902792000212,,5,11.445893958007218,11.454902792000212,11.454902792000212,0.01186720900295768,12.301128332997905,[np.float64(0.2722222222222222)],[np.float64(-0.1638888888888889)],[1],[0],[0],[0.8551734159991611],['target'],Saloni 2,001,2025-09-29_18h11.11.332,visual search task 1,,2025.1.1,120.45501836320676,2025-09-29 18h19.10.762819 +0530,
10,0,10,[np.float64(-0.23194444444444445)],[np.float64(-0.16111111111111112)],[1],[0],[0],[1.1769757089932682],['target'],10,0,10,0,12.333487208001316,,10,12.322828457996366,12.333487208001316,12.333487208001316,0.021543916009250097,13.499836083006812,[np.float64(-0.23194444444444445)],[np.float64(-0.16111111111111112)],[1],[0],[0],[1.1769757089932682],['target'],Saloni 2,001,2025-09-29_18h11.11.332,visual search task 1,,2025.1.1,120.45501836320676,2025-09-29 18h19.10.762819 +0530,
11,0,11,[np.float64(0.32083333333333336)],[np.float64(0.3194444444444444)],[1],[0],[0],[1.8155786670104135],['target'],11,0,11,0,13.527526500009117,,10,13.517917667006259,13.527526500009117,13.527526500009117,0.017931334004970267,15.333548167007393,[np.float64(0.32083333333333336)],[np.float64(0.3194444444444444)],[1],[0],[0],[1.8155786670104135],['target'],Saloni 2,001,2025-09-29_18h11.11.332,visual search task 1,,2025.1.1,120.45501836320676,2025-09-29 18h19.10.762819 +0530,
12,0,12,"[np.float64(-0.030555555555555555), np.float64(-0.0125)]","[np.float64(-0.17083333333333334), np.float64(-0.17083333333333334)]","[1, 1]","[0, 0]","[0, 0]","[0.8084593749954365, 1.3408169169997564]","[None, 'target']",12,0,12,0,15.34960850000789,,5,15.342436833001557,15.34960850000789,15.34960850000789,0.008764750004047528,16.683317000002717,"[np.float64(-0.030555555555555555), np.float64(-0.0125)]","[np.float64(-0.17083333333333334), np.float64(-0.17083333333333334)]","[1, 1]","[0, 0]","[0, 0]","[0.8084593749954365, 1.3408169169997564]","[None, 'target']",Saloni 2,001,2025-09-29_18h11.11.332,visual search task 1,,2025.1.1,120.45501836320676,2025-09-29 18h19.10.762819 +0530,
13,0,13,[np.float64(-0.39166666666666666)],[np.float64(0.016666666666666666)],[1],[0],[0],[0.9716303750028601],['target'],13,0,13,0,16.704220458006603,,5,16.695469583006343,16.704220458006603,16.704220458006603,0.01197612500982359,17.667178582996712,[np.float64(-0.39166666666666666)],[np.float64(0.016666666666666666)],[1],[0],[0],[0.9716303750028601],['target'],Saloni 2,001,2025-09-29_18h11.11.332,visual search task 1,,2025.1.1,120.45501836320676,2025-09-29 18h19.10.762819 +0530,
14,0,14,[np.float64(0.4388888888888889)],[np.float64(0.42916666666666664)],[1],[0],[0],[1.4615751249948516],['target'],14,0,14,0,17.69873383300728,,10,17.68810937499802,17.69873383300728,17.69873383300728,0.020798583995201625,19.149725499999477,[np.float64(0.4388888888888889)],[np.float64(0.42916666666666664)],[1],[0],[0],[1.4615751249948516],['target'],Saloni 2,001,2025-09-29_18h11.11.332,visual search task 1,,2025.1.1,120.45501836320676,2025-09-29 18h19.10.762819 +0530,
15,0,15,[np.float64(0.21944444444444444)],[np.float64(0.2875)],[1],[0],[0],[0.7752625830034958],['target'],15,0,15,0,19.166103249997832,,5,19.158957874999032,19.166103249997832,19.166103249997832,0.009107834004680626,19.934303333007847,[np.float64(0.21944444444444444)],[np.float64(0.2875)],[1],[0],[0],[0.7752625830034958],['target'],Saloni 2,001,2025-09-29_18h11.11.332,visual search task 1,,2025.1.1,120.45501836320676,2025-09-29 18h19.10.762819 +0530,
16,0,16,[np.float64(-0.4097222222222222)],[np.float64(-0.09166666666666666)],[1],[0],[0],[1.1047791250020964],['target'],16,0,16,0,19.954541625003912,,5,19.945957167001325,19.954541625003912,19.954541625003912,0.011496999999508262,21.050807958003134,[np.float64(-0.4097222222222222)],[np.float64(-0.09166666666666666)],[1],[0],[0],[1.1047791250020964],['target'],Saloni 2,001,2025-09-29_18h11.11.332,visual search task 1,,2025.1.1,120.45501836320676,2025-09-29 18h19.10.762819 +0530,
17,0,17,[np.float64(0.40555555555555556)],[np.float64(0.0875)],[1],[0],[0],[1.221687249999377],['target'],17,0,17,0,21.070874791999813,,5,21.062109000005876,21.070874791999813,21.070874791999813,0.011160875001223758,22.283861167001305,[np.float64(0.40555555555555556)],[np.float64(0.0875)],[1],[0],[0],[1.221687249999377],['target'],Saloni 2,001,2025-09-29_18h11.11.332,visual search task 1,,2025.1.1,120.45501836320676,2025-09-29 18h19.10.762819 +0530,
18,0,18,[np.float64(0.3625)],[np.float64(0.44722222222222224)],[1],[0],[0],[2.5455359170009615],['target'],18,0,18,0,22.315152958006365,,10,22.304768792004324,22.315152958006365,22.315152958006365,0.02075462500215508,24.85034595799516,[np.float64(0.3625)],[np.float64(0.44722222222222224)],[1],[0],[0],[2.5455359170009615],['target'],Saloni 2,001,2025-09-29_18h11.11.332,visual search task 1,,2025.1.1,120.45501836320676,2025-09-29 18h19.10.762819 +0530,
19,0,19,[np.float64(0.3625)],[np.float64(-0.41944444444444445)],[1],[0],[0],[1.4090534160059178],['target'],19,0,19,0,24.866558749999967,,5,24.859628999998677,24.866558749999967,24.866558749999967,0.00915591701050289,26.26875558300526,[np.float64(0.3625)],[np.float64(-0.41944444444444445)],[1],[0],[0],[1.4090534160059178],['target'],Saloni 2,001,2025-09-29_18h11.11.332,visual search task 1,,2025.1.1,120.45501836320676,2025-09-29 18h19.10.762819 +0530,
20,0,20,[np.float64(0.027777777777777776)],[np.float64(-0.022222222222222223)],[1],[0],[0],[2.176838957995642],['target'],20,0,20,0,26.30049208299897,,10,26.29005216700898,26.30049208299897,26.30049208299897,0.02115758298896253,28.46693670800596,[np.float64(0.027777777777777776)],[np.float64(-0.022222222222222223)],[1],[0],[0],[2.176838957995642],['target'],Saloni 2,001,2025-09-29_18h11.11.332,visual search task 1,,2025.1.1,120.45501836320676,2025-09-29 18h19.10.762819 +0530,
21,0,21,[np.float64(-0.018055555555555554)],[np.float64(0.06805555555555555)],[1],[0],[0],[0.7910256250033854],['target'],21,0,21,0,28.48338158300612,,5,28.476115458004642,28.48338158300612,28.48338158300612,0.009053583999047987,29.26720958300575,[np.float64(-0.018055555555555554)],[np.float64(0.06805555555555555)],[1],[0],[0],[0.7910256250033854],['target'],Saloni 2,001,2025-09-29_18h11.11.332,visual search task 1,,2025.1.1,120.45501836320676,2025-09-29 18h19.10.762819 +0530,
22,0,22,[np.float64(-0.17777777777777778)],[np.float64(-0.36944444444444446)],[1],[0],[0],[1.5305412909947336],['target'],22,0,22,0,29.295579958008602,,10,29.2857103330025,29.295579958008602,29.295579958008602,0.018362167000304908,30.816291292008827,[np.float64(-0.17777777777777778)],[np.float64(-0.36944444444444446)],[1],[0],[0],[1.5305412909947336],['target'],Saloni 2,001,2025-09-29_18h11.11.332,visual search task 1,,2025.1.1,120.45501836320676,2025-09-29 18h19.10.762819 +0530,
23,0,23,[np.float64(-0.2)],[np.float64(-0.2875)],[1],[0],[0],[0.9429925839940552],['target'],23,0,23,0,30.831301625003107,,5,30.824725375001435,30.831301625003107,30.831301625003107,0.008320624998304993,31.767794291998143,[np.float64(-0.2)],[np.float64(-0.2875)],[1],[0],[0],[0.9429925839940552],['target'],Saloni 2,001,2025-09-29_18h11.11.332,visual search task 1,,2025.1.1,120.45501836320676,2025-09-29 18h19.10.762819 +0530,
24,0,24,[np.float64(0.08472222222222223)],[np.float64(0.33611111111111114)],[1],[0],[0],[1.6461182909988565],['target'],24,0,24,0,31.798354250000557,,10,31.788123917009216,31.798354250000557,31.798354250000557,0.020195333010633476,33.43428087500797,[np.float64(0.08472222222222223)],[np.float64(0.33611111111111114)],[1],[0],[0],[1.6461182909988565],['target'],Saloni 2,001,2025-09-29_18h11.11.332,visual search task 1,,2025.1.1,120.45501836320676,2025-09-29 18h19.10.762819 +0530,
25,0,25,[np.float64(0.4111111111111111)],[np.float64(0.375)],[1],[0],[0],[1.2838777080032742],['target'],25,0,25,0,33.45922233299643,,10,33.45020691699756,33.45922233299643,33.45922233299643,0.015803083006176166,34.73413350000919,[np.float64(0.4111111111111111)],[np.float64(0.375)],[1],[0],[0],[1.2838777080032742],['target'],Saloni 2,001,2025-09-29_18h11.11.332,visual search task 1,,2025.1.1,120.45501836320676,2025-09-29 18h19.10.762819 +0530,
26,0,26,[np.float64(-0.3402777777777778)],[np.float64(-0.34305555555555556)],[1],[0],[0],[1.3331779169966467],['target'],26,0,26,0,34.75982483300322,,10,34.750761625007726,34.75982483300322,34.75982483300322,0.01647641698946245,36.08399166700838,[np.float64(-0.3402777777777778)],[np.float64(-0.34305555555555556)],[1],[0],[0],[1.3331779169966467],['target'],Saloni 2,001,2025-09-29_18h11.11.332,visual search task 1,,2025.1.1,120.45501836320676,2025-09-29 18h19.10.762819 +0530,
27,0,27,[np.float64(0.45555555555555555)],[np.float64(0.1625)],[1],[0],[0],[1.4416046670085052],['target'],27,0,27,0,36.100793332996545,,5,36.093423375001294,36.100793332996545,36.100793332996545,0.00927704198693391,37.535104750000755,[np.float64(0.45555555555555555)],[np.float64(0.1625)],[1],[0],[0],[1.4416046670085052],['target'],Saloni 2,001,2025-09-29_18h11.11.332,visual search task 1,,2025.1.1,120.45501836320676,2025-09-29 18h19.10.762819 +0530,
28,0,28,[np.float64(0.14444444444444443)],[np.float64(-0.425)],[1],[0],[0],[1.5043069169914816],['target'],28,0,28,0,37.55686658300692,,5,37.54694316700625,37.55686658300692,37.55686658300692,0.011712749997968785,39.05131354200421,[np.float64(0.14444444444444443)],[np.float64(-0.425)],[1],[0],[0],[1.5043069169914816],['target'],Saloni 2,001,2025-09-29_18h11.11.332,visual search task 1,,2025.1.1,120.45501836320676,2025-09-29 18h19.10.762819 +0530,
29,0,29,[np.float64(0.49027777777777776)],[np.float64(-0.06111111111111111)],[1],[0],[0],[1.3125300829997286],['target'],29,0,29,0,39.08124820800731,,10,39.07124183300766,39.08124820800731,39.08124820800731,0.019794333988102153,40.38381308299722,[np.float64(0.49027777777777776)],[np.float64(-0.06111111111111111)],[1],[0],[0],[1.3125300829997286],['target'],Saloni 2,001,2025-09-29_18h11.11.332,visual search task 1,,2025.1.1,120.45501836320676,2025-09-29 18h19.10.762819 +0530,
30,0,30,"[np.float64(0.2986111111111111), np.float64(0.3527777777777778)]","[np.float64(-0.4236111111111111), np.float64(-0.4097222222222222)]","[1, 1]","[0, 0]","[0, 0]","[2.4859626250108704, 2.985727791005047]","[None, 'target']",30,0,30,0,40.40851345800911,,10,40.39948291699693,40.40851345800911,40.40851345800911,0.015545250003924593,43.38526104199991,"[np.float64(0.2986111111111111), np.float64(0.3527777777777778)]","[np.float64(-0.4236111111111111), np.float64(-0.4097222222222222)]","[1, 1]","[0, 0]","[0, 0]","[2.4859626250108704, 2.985727791005047]","[None, 'target']",Saloni 2,001,2025-09-29_18h11.11.332,visual search task 1,,2025.1.1,120.45501836320676,2025-09-29 18h19.10.762819 +0530,
31,0,31,[np.float64(-0.23055555555555557)],[np.float64(-0.2625)],[1],[0],[0],[0.989589207994868],['target'],31,0,31,0,43.40182625000307,,5,43.39458112500142,43.40182625000307,43.40182625000307,0.00917624999419786,44.38423008300015,[np.float64(-0.23055555555555557)],[np.float64(-0.2625)],[1],[0],[0],[0.989589207994868],['target'],Saloni 2,001,2025-09-29_18h11.11.332,visual search task 1,,2025.1.1,120.45501836320676,2025-09-29 18h19.10.762819 +0530,
32,0,32,[np.float64(0.015277777777777777)],[np.float64(-0.4652777777777778)],[1],[0],[0],[1.2057158749958035],['target'],32,0,32,0,44.40355350000027,,5,44.39575079199858,44.40355350000027,44.40355350000027,0.011385624995455146,45.60153141700721,[np.float64(0.015277777777777777)],[np.float64(-0.4652777777777778)],[1],[0],[0],[1.2057158749958035],['target'],Saloni 2,001,2025-09-29_18h11.11.332,visual search task 1,,2025.1.1,120.45501836320676,2025-09-29 18h19.10.762819 +0530,
33,0,33,[np.float64(0.3763888888888889)],[np.float64(-0.075)],[1],[0],[0],[0.9867381250078324],['target'],33,0,33,0,45.623767166995094,,5,45.614470667002024,45.623767166995094,45.623767166995094,0.012787625004420988,46.60128012500354,[np.float64(0.3763888888888889)],[np.float64(-0.075)],[1],[0],[0],[0.9867381250078324],['target'],Saloni 2,001,2025-09-29_18h11.11.332,visual search task 1,,2025.1.1,120.45501836320676,2025-09-29 18h19.10.762819 +0530,
34,0,34,[np.float64(-0.3263888888888889)],[np.float64(-0.4152777777777778)],[1],[0],[0],[1.3052431249961955],['target'],34,0,34,0,46.62164549999579,,5,46.61296399999992,46.62164549999579,46.62164549999579,0.01155312500486616,47.91828329200507,[np.float64(-0.3263888888888889)],[np.float64(-0.4152777777777778)],[1],[0],[0],[1.3052431249961955],['target'],Saloni 2,001,2025-09-29_18h11.11.332,visual search task 1,,2025.1.1,120.45501836320676,2025-09-29 18h19.10.762819 +0530,
35,0,35,[np.float64(-0.12222222222222222)],[np.float64(-0.24166666666666667)],[1],[0],[0],[1.095908875009627],['target'],35,0,35,0,47.94885349999822,,10,47.9383711249975,47.94885349999822,47.94885349999822,0.019951541005866602,49.03432858300221,[np.float64(-0.12222222222222222)],[np.float64(-0.24166666666666667)],[1],[0],[0],[1.095908875009627],['target'],Saloni 2,001,2025-09-29_18h11.11.332,visual search task 1,,2025.1.1,120.45501836320676,2025-09-29 18h19.10.762819 +0530,
36,0,36,[np.float64(-0.24583333333333332)],[np.float64(0.15833333333333333)],[1],[0],[0],[0.9756645829911577],['target'],36,0,36,0,49.050151792005636,,5,49.04287295800168,49.050151792005636,49.050151792005636,0.008415999996941537,50.018610416998854,[np.float64(-0.24583333333333332)],[np.float64(0.15833333333333333)],[1],[0],[0],[0.9756645829911577],['target'],Saloni 2,001,2025-09-29_18h11.11.332,visual search task 1,,2025.1.1,120.45501836320676,2025-09-29 18h19.10.762819 +0530,
37,0,37,"[np.float64(-0.2972222222222222), np.float64(-0.28888888888888886)]","[np.float64(0.17777777777777778), np.float64(0.1736111111111111)]","[1, 1]","[0, 0]","[0, 0]","[0.7802684589987621, 1.1462143750104588]","[None, 'target']",37,0,37,0,50.0479758750007,,10,50.03800070800935,50.0479758750007,50.0479758750007,0.01925495799514465,51.18426766700577,"[np.float64(-0.2972222222222222), np.float64(-0.28888888888888886)]","[np.float64(0.17777777777777778), np.float64(0.1736111111111111)]","[1, 1]","[0, 0]","[0, 0]","[0.7802684589987621, 1.1462143750104588]","[None, 'target']",Saloni 2,001,2025-09-29_18h11.11.332,visual search task 1,,2025.1.1,120.45501836320676,2025-09-29 18h19.10.762819 +0530,
38,0,38,[np.float64(0.43333333333333335)],[np.float64(-0.4638888888888889)],[1],[0],[0],[2.1994174999999814],['target'],38,0,38,0,51.21290912499535,,10,51.2027454580093,51.21290912499535,51.21290912499535,0.018309999999473803,53.40222254200489,[np.float64(0.43333333333333335)],[np.float64(-0.4638888888888889)],[1],[0],[0],[2.1994174999999814],['target'],Saloni 2,001,2025-09-29_18h11.11.332,visual search task 1,,2025.1.1,120.45501836320676,2025-09-29 18h19.10.762819 +0530,
39,0,39,"[np.float64(0.30277777777777776), np.float64(0.3375)]","[np.float64(0.04722222222222222), np.float64(0.02361111111111111)]","[1, 1]","[0, 0]","[0, 0]","[2.999357708002208, 3.4496224579925183]","[None, 'target']",39,0,39,0,53.427920917005395,,10,53.41831454199564,53.427920917005395,53.427920917005395,0.01596662499650847,56.867995167005574,"[np.float64(0.30277777777777776), np.float64(0.3375)]","[np.float64(0.04722222222222222), np.float64(0.02361111111111111)]","[1, 1]","[0, 0]","[0, 0]","[2.999357708002208, 3.4496224579925183]","[None, 'target']",Saloni 2,001,2025-09-29_18h11.11.332,visual search task 1,,2025.1.1,120.45501836320676,2025-09-29 18h19.10.762819 +0530,
40,0,40,[np.float64(0.31527777777777777)],[np.float64(0.04027777777777778)],[1],[0],[0],[1.2408317920053378],['target'],40,0,40,0,56.88552662500297,,5,56.87792758300202,56.88552662500297,56.88552662500297,0.009771333003300242,58.118828999999096,[np.float64(0.31527777777777777)],[np.float64(0.04027777777777778)],[1],[0],[0],[1.2408317920053378],['target'],Saloni 2,001,2025-09-29_18h11.11.332,visual search task 1,,2025.1.1,120.45501836320676,2025-09-29 18h19.10.762819 +0530,
41,0,41,[np.float64(0.03333333333333333)],[np.float64(0.4041666666666667)],[1],[0],[0],[2.1102197080035694],['target'],41,0,41,0,58.15113558300072,,10,58.140799333006726,58.15113558300072,58.15113558300072,0.0218175829941174,60.25105329199869,[np.float64(0.03333333333333333)],[np.float64(0.4041666666666667)],[1],[0],[0],[2.1102197080035694],['target'],Saloni 2,001,2025-09-29_18h11.11.332,visual search task 1,,2025.1.1,120.45501836320676,2025-09-29 18h19.10.762819 +0530,
42,0,42,[np.float64(-0.125)],[np.float64(0.18333333333333332)],[1],[0],[0],[0.8090493330091704],['target'],42,0,42,0,60.26629425000283,,5,60.25911787500081,60.26629425000283,60.26629425000283,0.007923791999928653,61.06824287500058,[np.float64(-0.125)],[np.float64(0.18333333333333332)],[1],[0],[0],[0.8090493330091704],['target'],Saloni 2,001,2025-09-29_18h11.11.332,visual search task 1,,2025.1.1,120.45501836320676,2025-09-29 18h19.10.762819 +0530,
43,0,43,[np.float64(0.37222222222222223)],[np.float64(-0.4583333333333333)],[1],[0],[0],[2.2564317080104956],['target'],43,0,43,0,61.08794320799643,,5,61.07905966699764,61.08794320799643,61.08794320799643,0.01068504100840073,63.33554612500302,[np.float64(0.37222222222222223)],[np.float64(-0.4583333333333333)],[1],[0],[0],[2.2564317080104956],['target'],Saloni 2,001,2025-09-29_18h11.11.332,visual search task 1,,2025.1.1,120.45501836320676,2025-09-29 18h19.10.762819 +0530,
44,0,44,[np.float64(-0.16944444444444445)],[np.float64(0.32916666666666666)],[1],[0],[0],[1.0555782500014175],['target'],44,0,44,0,63.35413904199959,,5,63.346203167006024,63.35413904199959,63.35413904199959,0.010524249999434687,64.40183708300174,[np.float64(-0.16944444444444445)],[np.float64(0.32916666666666666)],[1],[0],[0],[1.0555782500014175],['target'],Saloni 2,001,2025-09-29_18h11.11.332,visual search task 1,,2025.1.1,120.45501836320676,2025-09-29 18h19.10.762819 +0530,
45,0,45,[np.float64(0.4791666666666667)],[np.float64(-0.29583333333333334)],[1],[0],[0],[1.2293092079926282],['target'],45,0,45,0,64.43280212499667,,10,64.42247820799821,64.43280212499667,64.43280212499667,0.020506875007413328,65.65183887499734,[np.float64(0.4791666666666667)],[np.float64(-0.29583333333333334)],[1],[0],[0],[1.2293092079926282],['target'],Saloni 2,001,2025-09-29_18h11.11.332,visual search task 1,,2025.1.1,120.45501836320676,2025-09-29 18h19.10.762819 +0530,
46,0,46,[np.float64(-0.3541666666666667)],[np.float64(0.29305555555555557)],[1],[0],[0],[1.04152666599839],['target'],46,0,46,0,65.66822420799872,,5,65.66090695800085,65.66822420799872,65.66822420799872,0.008942624990595505,66.70249904200318,[np.float64(-0.3541666666666667)],[np.float64(0.29305555555555557)],[1],[0],[0],[1.04152666599839],['target'],Saloni 2,001,2025-09-29_18h11.11.332,visual search task 1,,2025.1.1,120.45501836320676,2025-09-29 18h19.10.762819 +0530,
47,0,47,[np.float64(-0.32083333333333336)],[np.float64(0.48333333333333334)],[1],[0],[0],[1.7391331670078216],['target'],47,0,47,0,66.72086775000207,,5,66.71335499999986,66.72086775000207,66.72086775000207,0.010734958996181376,68.45254333299818,[np.float64(-0.32083333333333336)],[np.float64(0.48333333333333334)],[1],[0],[0],[1.7391331670078216],['target'],Saloni 2,001,2025-09-29_18h11.11.332,visual search task 1,,2025.1.1,120.45501836320676,2025-09-29 18h19.10.762819 +0530,
48,0,48,[np.float64(-0.1625)],[np.float64(-0.4083333333333333)],[1],[0],[0],[1.7307775420049438],['target'],48,0,48,0,68.48084862499672,,10,68.4710564170091,68.48084862499672,68.48084862499672,0.018378833992755972,70.20188079199579,[np.float64(-0.1625)],[np.float64(-0.4083333333333333)],[1],[0],[0],[1.7307775420049438],['target'],Saloni 2,001,2025-09-29_18h11.11.332,visual search task 1,,2025.1.1,120.45501836320676,2025-09-29 18h19.10.762819 +0530,
49,0,49,[np.float64(0.39861111111111114)],[np.float64(-0.3736111111111111)],[1],[0],[0],[1.635661667009117],['target'],49,0,49,0,70.22652279199974,,10,70.21711591699568,70.22652279199974,70.22652279199974,0.015104542006156407,71.852831917,[np.float64(0.39861111111111114)],[np.float64(-0.3736111111111111)],[1],[0],[0],[1.635661667009117],['target'],Saloni 2,001,2025-09-29_18h11.11.332,visual search task 1,,2025.1.1,120.45501836320676,2025-09-29 18h19.10.762819 +0530,
50,0,50,[np.float64(0.3138888888888889)],[np.float64(0.2263888888888889)],[1],[0],[0],[1.3730491250025807],['target'],50,0,50,0,71.86989950000134,,5,71.86230058300134,71.86989950000134,71.86989950000134,0.009346624996396713,73.2354074169998,[np.float64(0.3138888888888889)],[np.float64(0.2263888888888889)],[1],[0],[0],[1.3730491250025807],['target'],Saloni 2,001,2025-09-29_18h11.11.332,visual search task 1,,2025.1.1,120.45501836320676,2025-09-29 18h19.10.762819 +0530,
51,0,51,[np.float64(-0.4305555555555556)],[np.float64(0.26944444444444443)],[1],[0],[0],[1.7289256670046598],['target'],51,0,51,0,73.26765387500927,,10,73.25662629200087,73.26765387500927,73.26765387500927,0.021084207997773774,74.9855977499974,[np.float64(-0.4305555555555556)],[np.float64(0.26944444444444443)],[1],[0],[0],[1.7289256670046598],['target'],Saloni 2,001,2025-09-29_18h11.11.332,visual search task 1,,2025.1.1,120.45501836320676,2025-09-29 18h19.10.762819 +0530,
52,0,52,[np.float64(-0.4930555555555556)],[np.float64(-0.25833333333333336)],[1],[0],[0],[1.2847762090095785],['target'],52,0,52,0,75.00984204199631,,10,75.00060304200451,75.00984204199631,75.00984204199631,0.014919332999852486,76.28542708299938,[np.float64(-0.4930555555555556)],[np.float64(-0.25833333333333336)],[1],[0],[0],[1.2847762090095785],['target'],Saloni 2,001,2025-09-29_18h11.11.332,visual search task 1,,2025.1.1,120.45501836320676,2025-09-29 18h19.10.762819 +0530,
53,0,53,[np.float64(0.2875)],[np.float64(-0.48055555555555557)],[1],[0],[0],[1.492978291993495],['target'],53,0,53,0,76.30030004199944,,5,76.29335879199789,76.30030004199944,76.30030004199944,0.007815666001988575,77.78640758300025,[np.float64(0.2875)],[np.float64(-0.48055555555555557)],[1],[0],[0],[1.492978291993495],['target'],Saloni 2,001,2025-09-29_18h11.11.332,visual search task 1,,2025.1.1,120.45501836320676,2025-09-29 18h19.10.762819 +0530,
54,0,54,[np.float64(-0.041666666666666664)],[np.float64(0.3263888888888889)],[1],[0],[0],[1.2390670830063755],['target'],54,0,54,0,77.8049937080068,,5,77.79737837500579,77.8049937080068,77.8049937080068,0.010835999986738898,79.03651695800363,[np.float64(-0.041666666666666664)],[np.float64(0.3263888888888889)],[1],[0],[0],[1.2390670830063755],['target'],Saloni 2,001,2025-09-29_18h11.11.332,visual search task 1,,2025.1.1,120.45501836320676,2025-09-29 18h19.10.762819 +0530,
55,0,55,[np.float64(0.0375)],[np.float64(-0.03333333333333333)],[1],[0],[0],[1.1970123749924824],['target'],55,0,55,0,79.06565966700146,,10,79.05554324999684,79.06565966700146,79.06565966700146,0.01889008400030434,80.25260412500938,[np.float64(0.0375)],[np.float64(-0.03333333333333333)],[1],[0],[0],[1.1970123749924824],['target'],Saloni 2,001,2025-09-29_18h11.11.332,visual search task 1,,2025.1.1,120.45501836320676,2025-09-29 18h19.10.762819 +0530,
56,0,56,[np.float64(-0.19583333333333333)],[np.float64(-0.1638888888888889)],[1],[0],[0],[0.9166600419994211],['target'],56,0,56,0,80.27839204200427,,10,80.26919679199636,80.27839204200427,80.27839204200427,0.016449625007226132,81.18590154200501,[np.float64(-0.19583333333333333)],[np.float64(-0.1638888888888889)],[1],[0],[0],[0.9166600419994211],['target'],Saloni 2,001,2025-09-29_18h11.11.332,visual search task 1,,2025.1.1,120.45501836320676,2025-09-29 18h19.10.762819 +0530,
57,0,57,[np.float64(-0.17083333333333334)],[np.float64(-0.059722222222222225)],[1],[0],[0],[0.6922899589990266],['target'],57,0,57,0,81.20079237500613,,5,81.19414700000198,81.20079237500613,81.20079237500613,0.008130582995363511,81.8865504580026,[np.float64(-0.17083333333333334)],[np.float64(-0.059722222222222225)],[1],[0],[0],[0.6922899589990266],['target'],Saloni 2,001,2025-09-29_18h11.11.332,visual search task 1,,2025.1.1,120.45501836320676,2025-09-29 18h19.10.762819 +0530,
58,0,58,[np.float64(0.48194444444444445)],[np.float64(0.4638888888888889)],[1],[0],[0],[2.762537667003926],['target'],58,0,58,0,81.91690287500387,,10,81.90621579199797,81.91690287500387,81.91690287500387,0.019518665998475626,84.66880112500803,[np.float64(0.48194444444444445)],[np.float64(0.4638888888888889)],[1],[0],[0],[2.762537667003926],['target'],Saloni 2,001,2025-09-29_18h11.11.332,visual search task 1,,2025.1.1,120.45501836320676,2025-09-29 18h19.10.762819 +0530,
59,0,59,[np.float64(0.25277777777777777)],[np.float64(0.12361111111111112)],[1],[0],[0],[1.3083527919952758],['target'],59,0,59,0,84.68522691700491,,5,84.67783095799678,84.68522691700491,84.68522691700491,0.008914833000744693,85.98623416700866,[np.float64(0.25277777777777777)],[np.float64(0.12361111111111112)],[1],[0],[0],[1.3083527919952758],['target'],Saloni 2,001,2025-09-29_18h11.11.332,visual search task 1,,2025.1.1,120.45501836320676,2025-09-29 18h19.10.762819 +0530,
60,0,60,[np.float64(-0.2652777777777778)],[np.float64(0.2638888888888889)],[1],[0],[0],[1.2462811670120573],['target'],60,0,60,0,86.01703737500065,,10,86.00660958299704,86.01703737500065,86.01703737500065,0.020240500001818873,87.25296500000695,[np.float64(-0.2652777777777778)],[np.float64(0.2638888888888889)],[1],[0],[0],[1.2462811670120573],['target'],Saloni 2,001,2025-09-29_18h11.11.332,visual search task 1,,2025.1.1,120.45501836320676,2025-09-29 18h19.10.762819 +0530,
61,0,61,[np.float64(0.325)],[np.float64(0.11388888888888889)],[1],[0],[0],[1.0757452919933712],['target'],61,0,61,0,87.26924000000872,,5,87.26195112500864,87.26924000000872,87.26924000000872,0.008856166008627042,88.33777737499622,[np.float64(0.325)],[np.float64(0.11388888888888889)],[1],[0],[0],[1.0757452919933712],['target'],Saloni 2,001,2025-09-29_18h11.11.332,visual search task 1,,2025.1.1,120.45501836320676,2025-09-29 18h19.10.762819 +0530,
62,0,62,[np.float64(-0.015277777777777777)],[np.float64(-0.3597222222222222)],[1],[0],[0],[1.1580363749962999],['target'],62,0,62,0,88.37332579199574,,10,88.36153966700658,88.37332579199574,88.37332579199574,0.023588250012835488,89.51961595800822,[np.float64(-0.015277777777777777)],[np.float64(-0.3597222222222222)],[1],[0],[0],[1.1580363749962999],['target'],Saloni 2,001,2025-09-29_18h11.11.332,visual search task 1,,2025.1.1,120.45501836320676,2025-09-29 18h19.10.762819 +0530,
63,0,63,[np.float64(0.041666666666666664)],[np.float64(-0.15)],[1],[0],[0],[1.0088431659969501],['target'],63,0,63,0,89.53542699999525,,5,89.52819533299771,89.53542699999525,89.53542699999525,0.008445291998214088,90.53711345800548,[np.float64(0.041666666666666664)],[np.float64(-0.15)],[1],[0],[0],[1.0088431659969501],['target'],Saloni 2,001,2025-09-29_18h11.11.332,visual search task 1,,2025.1.1,120.45501836320676,2025-09-29 18h19.10.762819 +0530,
64,0,64,[np.float64(0.2833333333333333)],[np.float64(0.4152777777777778)],[1],[0],[0],[1.0718447919934988],['target'],64,0,64,0,90.55574974999763,,5,90.54803383300896,90.55574974999763,90.55574974999763,0.01079070799460169,91.6199392080016,[np.float64(0.2833333333333333)],[np.float64(0.4152777777777778)],[1],[0],[0],[1.0718447919934988],['target'],Saloni 2,001,2025-09-29_18h11.11.332,visual search task 1,,2025.1.1,120.45501836320676,2025-09-29 18h19.10.762819 +0530,
65,0,65,[np.float64(0.45694444444444443)],[np.float64(0.05277777777777778)],[1],[0],[0],[2.2137549170001876],['target'],65,0,65,0,91.65046745800646,,10,91.63971791700169,91.65046745800646,91.65046745800646,0.01964391701039858,93.85352033299569,[np.float64(0.45694444444444443)],[np.float64(0.05277777777777778)],[1],[0],[0],[2.2137549170001876],['target'],Saloni 2,001,2025-09-29_18h11.11.332,visual search task 1,,2025.1.1,120.45501836320676,2025-09-29 18h19.10.762819 +0530,
66,0,66,[np.float64(0.10972222222222222)],[np.float64(0.2611111111111111)],[1],[0],[0],[1.0408197500073584],['target'],66,0,66,0,93.87149691699597,,5,93.86354908300564,93.87149691699597,93.87149691699597,0.009887541993521154,94.90444949999801,[np.float64(0.10972222222222222)],[np.float64(0.2611111111111111)],[1],[0],[0],[1.0408197500073584],['target'],Saloni 2,001,2025-09-29_18h11.11.332,visual search task 1,,2025.1.1,120.45501836320676,2025-09-29 18h19.10.762819 +0530,
67,0,67,[np.float64(-0.33055555555555555)],[np.float64(-0.0375)],[1],[0],[0],[1.1568660410121083],['target'],67,0,67,0,94.94191812499776,,10,94.92898433300434,94.94191812499776,94.94191812499776,0.02436370799841825,96.08588545800012,[np.float64(-0.33055555555555555)],[np.float64(-0.0375)],[1],[0],[0],[1.1568660410121083],['target'],Saloni 2,001,2025-09-29_18h11.11.332,visual search task 1,,2025.1.1,120.45501836320676,2025-09-29 18h19.10.762819 +0530,
68,0,68,[np.float64(0.27361111111111114)],[np.float64(-0.15416666666666667)],[1],[0],[0],[1.3009133750019828],['target'],68,0,68,0,96.11062612499518,,10,96.10178700000688,96.11062612499518,96.11062612499518,0.015756541994051076,97.40275029200711,[np.float64(0.27361111111111114)],[np.float64(-0.15416666666666667)],[1],[0],[0],[1.3009133750019828],['target'],Saloni 2,001,2025-09-29_18h11.11.332,visual search task 1,,2025.1.1,120.45501836320676,2025-09-29 18h19.10.762819 +0530,
69,0,69,"[np.float64(-0.19722222222222222), np.float64(-0.24861111111111112)]","[np.float64(-0.4625), np.float64(-0.008333333333333333)]","[1, 1]","[0, 0]","[0, 0]","[2.177242958001443, 3.0925737079960527]","[None, 'target']",69,0,69,0,97.4179667080025,,5,97.41111666700453,97.4179667080025,97.4179667080025,0.008251125007518567,100.50376074999804,"[np.float64(-0.19722222222222222), np.float64(-0.24861111111111112)]","[np.float64(-0.4625), np.float64(-0.008333333333333333)]","[1, 1]","[0, 0]","[0, 0]","[2.177242958001443, 3.0925737079960527]","[None, 'target']",Saloni 2,001,2025-09-29_18h11.11.332,visual search task 1,,2025.1.1,120.45501836320676,2025-09-29 18h19.10.762819 +0530,
70,0,70,[np.float64(0.35694444444444445)],[np.float64(-0.06111111111111111)],[1],[0],[0],[1.5314050419983687],['target'],70,0,70,0,100.53186487499624,,10,100.52177800000936,100.53186487499624,100.53186487499624,0.0178778340050485,102.05323170800693,[np.float64(0.35694444444444445)],[np.float64(-0.06111111111111111)],[1],[0],[0],[1.5314050419983687],['target'],Saloni 2,001,2025-09-29_18h11.11.332,visual search task 1,,2025.1.1,120.45501836320676,2025-09-29 18h19.10.762819 +0530,
71,0,71,[np.float64(-0.27361111111111114)],[np.float64(0.3638888888888889)],[1],[0],[0],[1.2432217500027036],['target'],71,0,71,0,102.06831916699593,,5,102.06140125000093,102.06831916699593,102.06831916699593,0.008054457997786812,103.30470254200918,[np.float64(-0.27361111111111114)],[np.float64(0.3638888888888889)],[1],[0],[0],[1.2432217500027036],['target'],Saloni 2,001,2025-09-29_18h11.11.332,visual search task 1,,2025.1.1,120.45501836320676,2025-09-29 18h19.10.762819 +0530,
72,0,72,[np.float64(-0.10972222222222222)],[np.float64(-0.44722222222222224)],[1],[0],[0],[1.4634285409993026],['target'],72,0,72,0,103.33367900000303,,10,103.32311370800016,103.33367900000303,103.33367900000303,0.01827870799752418,104.78658908299985,[np.float64(-0.10972222222222222)],[np.float64(-0.44722222222222224)],[1],[0],[0],[1.4634285409993026],['target'],Saloni 2,001,2025-09-29_18h11.11.332,visual search task 1,,2025.1.1,120.45501836320676,2025-09-29 18h19.10.762819 +0530,
73,0,73,[np.float64(0.07777777777777778)],[np.float64(-0.12361111111111112)],[1],[0],[0],[1.6184104999992996],['target'],73,0,73,0,104.81096479200642,,10,104.80189504200825,104.81096479200642,104.81096479200642,0.015186249991529621,106.42035641700204,[np.float64(0.07777777777777778)],[np.float64(-0.12361111111111112)],[1],[0],[0],[1.6184104999992996],['target'],Saloni 2,001,2025-09-29_18h11.11.332,visual search task 1,,2025.1.1,120.45501836320676,2025-09-29 18h19.10.762819 +0530,
74,0,74,[np.float64(-0.14305555555555555)],[np.float64(-0.3277777777777778)],[1],[0],[0],[1.0088512920046924],['target'],74,0,74,0,106.43649466699571,,5,106.42920070800756,106.43649466699571,106.43649466699571,0.008721332997083664,107.43811437500699,[np.float64(-0.14305555555555555)],[np.float64(-0.3277777777777778)],[1],[0],[0],[1.0088512920046924],['target'],Saloni 2,001,2025-09-29_18h11.11.332,visual search task 1,,2025.1.1,120.45501836320676,2025-09-29 18h19.10.762819 +0530,
75,0,75,[np.float64(-0.32083333333333336)],[np.float64(0.0375)],[1],[0],[0],[1.6443325000000186],['target'],75,0,75,0,107.55251649999991,,10,107.54309437499614,107.55251649999991,107.55251649999991,0.10484733300108928,109.18746658299642,[np.float64(-0.32083333333333336)],[np.float64(0.0375)],[1],[0],[0],[1.6443325000000186],['target'],Saloni 2,001,2025-09-29_18h11.11.332,visual search task 1,,2025.1.1,120.45501836320676,2025-09-29 18h19.10.762819 +0530,
76,0,76,[np.float64(-0.05277777777777778)],[np.float64(0.2722222222222222)],[1],[0],[0],[1.0021140410099179],['target'],76,0,76,0,109.21100241699605,,10,109.20173349999823,109.21100241699605,109.21100241699605,0.014153666998026893,110.20390125000267,[np.float64(-0.05277777777777778)],[np.float64(0.2722222222222222)],[1],[0],[0],[1.0021140410099179],['target'],Saloni 2,001,2025-09-29_18h11.11.332,visual search task 1,,2025.1.1,120.45501836320676,2025-09-29 18h19.10.762819 +0530,
77,0,77,[np.float64(-0.3347222222222222)],[np.float64(-0.03194444444444444)],[1],[0],[0],[1.4669187079998665],['target'],77,0,77,0,110.2293386250094,,10,110.21973875000549,110.2293386250094,110.2293386250094,0.015704707999248058,111.68669850000879,[np.float64(-0.3347222222222222)],[np.float64(-0.03194444444444444)],[1],[0],[0],[1.4669187079998665],['target'],Saloni 2,001,2025-09-29_18h11.11.332,visual search task 1,,2025.1.1,120.45501836320676,2025-09-29 18h19.10.762819 +0530,
78,0,78,[np.float64(0.4125)],[np.float64(-0.36527777777777776)],[1],[0],[0],[1.3867015419964446],['target'],78,0,78,0,111.7109720419976,,10,111.70159091700043,111.7109720419976,111.7109720419976,0.014780875004362315,113.08834566699807,[np.float64(0.4125)],[np.float64(-0.36527777777777776)],[1],[0],[0],[1.3867015419964446],['target'],Saloni 2,001,2025-09-29_18h11.11.332,visual search task 1,,2025.1.1,120.45501836320676,2025-09-29 18h19.10.762819 +0530,
79,0,79,[np.float64(0.19583333333333333)],[np.float64(0.15694444444444444)],[1],[0],[0],[1.2404601250018459],['target'],79,0,79,0,113.10356366699853,,5,113.09687641699566,113.10356366699853,113.10356366699853,0.008409041998675093,114.33740779200161,[np.float64(0.19583333333333333)],[np.float64(0.15694444444444444)],[1],[0],[0],[1.2404601250018459],['target'],Saloni 2,001,2025-09-29_18h11.11.332,visual search task 1,,2025.1.1,120.45501836320676,2025-09-29 18h19.10.762819 +0530,
80,0,80,[np.float64(-0.3958333333333333)],[np.float64(-0.11527777777777778)],[1],[0],[0],[1.7555514160048915],['target'],80,0,80,0,114.35607737500686,,5,114.34804766700836,114.35607737500686,114.35607737500686,0.01051216700579971,116.10365270799957,[np.float64(-0.3958333333333333)],[np.float64(-0.11527777777777778)],[1],[0],[0],[1.7555514160048915],['target'],Saloni 2,001,2025-09-29_18h11.11.332,visual search task 1,,2025.1.1,120.45501836320676,2025-09-29 18h19.10.762819 +0530,
81,0,81,[np.float64(-0.1638888888888889)],[np.float64(0.44166666666666665)],[1],[0],[0],[1.1162271250068443],['target'],81,0,81,0,116.13193112499721,,10,116.1222462500009,116.13193112499721,116.13193112499721,0.01846079200913664,117.23852308299684,[np.float64(-0.1638888888888889)],[np.float64(0.44166666666666665)],[1],[0],[0],[1.1162271250068443],['target'],Saloni 2,001,2025-09-29_18h11.11.332,visual search task 1,,2025.1.1,120.45501836320676,2025-09-29 18h19.10.762819 +0530,
82,0,82,[np.float64(0.35555555555555557)],[np.float64(-0.18055555555555555)],[1],[0],[0],[1.3668515829922399],['target'],82,0,82,0,117.26291995799693,,10,117.25313354200625,117.26291995799693,117.26291995799693,0.014496125004370697,118.62003674999869,[np.float64(0.35555555555555557)],[np.float64(-0.18055555555555555)],[1],[0],[0],[1.3668515829922399],['target'],Saloni 2,001,2025-09-29_18h11.11.332,visual search task 1,,2025.1.1,120.45501836320676,2025-09-29 18h19.10.762819 +0530,
83,0,83,[np.float64(0.29305555555555557)],[np.float64(0.30416666666666664)],[1],[0],[0],[1.56884487500065],['target'],83,0,83,0,118.64450587499596,,10,118.63512533300673,118.64450587499596,118.64450587499596,0.01497433299664408,120.20402312499937,[np.float64(0.29305555555555557)],[np.float64(0.30416666666666664)],[1],[0],[0],[1.56884487500065],['target'],Saloni 2,001,2025-09-29_18h11.11.332,visual search task 1,,2025.1.1,120.45501836320676,2025-09-29 18h19.10.762819 +0530,
84,0,84,[np.float64(0.43194444444444446)],[np.float64(0.22777777777777777)],[1],[0],[0],[1.02621458399517],['target'],84,0,84,0,120.21915479200834,,5,120.21199837500171,120.21915479200834,120.21915479200834,0.007859749995986931,121.23827695799991,[np.float64(0.43194444444444446)],[np.float64(0.22777777777777777)],[1],[0],[0],[1.02621458399517],['target'],Saloni 2,001,2025-09-29_18h11.11.332,visual search task 1,,2025.1.1,120.45501836320676,2025-09-29 18h19.10.762819 +0530,
85,0,85,[np.float64(-0.027777777777777776)],[np.float64(-0.37222222222222223)],[1],[0],[0],[1.615038584001013],['target'],85,0,85,0,121.26503829199646,,10,121.255474125006,121.26503829199646,121.26503829199646,0.017075625000870787,122.87056275000214,[np.float64(-0.027777777777777776)],[np.float64(-0.37222222222222223)],[1],[0],[0],[1.615038584001013],['target'],Saloni 2,001,2025-09-29_18h11.11.332,visual search task 1,,2025.1.1,120.45501836320676,2025-09-29 18h19.10.762819 +0530,
86,0,86,[np.float64(0.30833333333333335)],[np.float64(-0.09166666666666666)],[1],[0],[0],[1.135339667001972],['target'],86,0,86,0,122.89404583300347,,10,122.8847007919976,122.89404583300347,122.89404583300347,0.01402104199223686,124.02009495800303,[np.float64(0.30833333333333335)],[np.float64(-0.09166666666666666)],[1],[0],[0],[1.135339667001972],['target'],Saloni 2,001,2025-09-29_18h11.11.332,visual search task 1,,2025.1.1,120.45501836320676,2025-09-29 18h19.10.762819 +0530,
87,0,87,[np.float64(0.3861111111111111)],[np.float64(0.3541666666666667)],[1],[0],[0],[0.975877707998734],['target'],87,0,87,0,124.0361605000071,,5,124.02925708300609,124.0361605000071,124.0361605000071,0.009044166989042424,125.00518583299709,[np.float64(0.3861111111111111)],[np.float64(0.3541666666666667)],[1],[0],[0],[0.975877707998734],['target'],Saloni 2,001,2025-09-29_18h11.11.332,visual search task 1,,2025.1.1,120.45501836320676,2025-09-29 18h19.10.762819 +0530,
88,0,88,[np.float64(-0.19305555555555556)],[np.float64(-0.43333333333333335)],[1],[0],[0],[1.8634965829987777],['target'],88,0,88,0,125.03499704200658,,10,125.02418145800766,125.03499704200658,125.03499704200658,0.01886499999091029,126.88772595800401,[np.float64(-0.19305555555555556)],[np.float64(-0.43333333333333335)],[1],[0],[0],[1.8634965829987777],['target'],Saloni 2,001,2025-09-29_18h11.11.332,visual search task 1,,2025.1.1,120.45501836320676,2025-09-29 18h19.10.762819 +0530,
89,0,89,[np.float64(0.32083333333333336)],[np.float64(-0.011111111111111112)],[1],[0],[0],[1.4749897500005318],['target'],89,0,89,0,126.90321470799972,,5,126.89622404200782,126.90321470799972,126.90321470799972,0.008374500001082197,128.37126062500465,[np.float64(0.32083333333333336)],[np.float64(-0.011111111111111112)],[1],[0],[0],[1.4749897500005318],['target'],Saloni 2,001,2025-09-29_18h11.11.332,visual search task 1,,2025.1.1,120.45501836320676,2025-09-29 18h19.10.762819 +0530,
90,0,90,[np.float64(0.3736111111111111)],[np.float64(0.18611111111111112)],[1],[0],[0],[1.0559455409966176],['target'],90,0,90,0,128.38924908300396,,5,128.381632042001,128.38924908300396,128.38924908300396,0.010252291001961567,129.4376365000062,[np.float64(0.3736111111111111)],[np.float64(0.18611111111111112)],[1],[0],[0],[1.0559455409966176],['target'],Saloni 2,001,2025-09-29_18h11.11.332,visual search task 1,,2025.1.1,120.45501836320676,2025-09-29 18h19.10.762819 +0530,
91,0,91,[np.float64(-0.2972222222222222)],[np.float64(0.20416666666666666)],[1],[0],[0],[1.2810575000039535],['target'],91,0,91,0,129.46832495799754,,10,129.45694241700403,129.46832495799754,129.46832495799754,0.019172665997757576,130.73804749999545,[np.float64(-0.2972222222222222)],[np.float64(0.20416666666666666)],[1],[0],[0],[1.2810575000039535],['target'],Saloni 2,001,2025-09-29_18h11.11.332,visual search task 1,,2025.1.1,120.45501836320676,2025-09-29 18h19.10.762819 +0530,
92,0,92,[np.float64(-0.4486111111111111)],[np.float64(0.044444444444444446)],[1],[0],[0],[1.4767814579972764],['target'],92,0,92,0,130.75333787500858,,5,130.7463250419969,130.75333787500858,130.75333787500858,0.008162792000803165,132.22317441699852,[np.float64(-0.4486111111111111)],[np.float64(0.044444444444444446)],[1],[0],[0],[1.4767814579972764],['target'],Saloni 2,001,2025-09-29_18h11.11.332,visual search task 1,,2025.1.1,120.45501836320676,2025-09-29 18h19.10.762819 +0530,
93,0,93,[np.float64(0.5055555555555555)],[np.float64(-0.44722222222222224)],[1],[0],[0],[2.6389188329922035],['target'],93,0,93,0,132.2414085000055,,5,132.23338499999954,132.2414085000055,132.2414085000055,0.010060832995804958,134.87236183299683,[np.float64(0.5055555555555555)],[np.float64(-0.44722222222222224)],[1],[0],[0],[2.6389188329922035],['target'],Saloni 2,001,2025-09-29_18h11.11.332,visual search task 1,,2025.1.1,120.45501836320676,2025-09-29 18h19.10.762819 +0530,
94,0,94,[np.float64(-0.46805555555555556)],[np.float64(0.0)],[1],[0],[0],[1.7794384580047335],['target'],94,0,94,0,134.90171562500473,,10,134.89154525000777,134.90171562500473,134.90171562500473,0.019046291999984533,136.67102337500546,[np.float64(-0.46805555555555556)],[np.float64(0.0)],[1],[0],[0],[1.7794384580047335],['target'],Saloni 2,001,2025-09-29_18h11.11.332,visual search task 1,,2025.1.1,120.45501836320676,2025-09-29 18h19.10.762819 +0530,
95,0,95,[np.float64(0.4013888888888889)],[np.float64(0.25277777777777777)],[1],[0],[0],[2.1853709170100046],['target'],95,0,95,0,136.69507766699826,,10,136.68597504199715,136.69507766699826,136.69507766699826,0.014841041003819555,138.87139645800926,[np.float64(0.4013888888888889)],[np.float64(0.25277777777777777)],[1],[0],[0],[2.1853709170100046],['target'],Saloni 2,001,2025-09-29_18h11.11.332,visual search task 1,,2025.1.1,120.45501836320676,2025-09-29 18h19.10.762819 +0530,
96,0,96,[np.float64(0.375)],[np.float64(0.14583333333333334)],[1],[0],[0],[1.1177957499894546],['target'],96,0,96,0,138.89613395799825,,10,138.88667683300446,138.89613395799825,138.89613395799825,0.01515004200336989,140.00451741700817,[np.float64(0.375)],[np.float64(0.14583333333333334)],[1],[0],[0],[1.1177957499894546],['target'],Saloni 2,001,2025-09-29_18h11.11.332,visual search task 1,,2025.1.1,120.45501836320676,2025-09-29 18h19.10.762819 +0530,
97,0,97,[np.float64(0.44583333333333336)],[np.float64(-0.16666666666666666)],[1],[0],[0],[1.0584801249933662],['target'],97,0,97,0,140.01975474999927,,5,140.0129656670033,140.01975474999927,140.01975474999927,0.008318916006828658,141.07151016700664,[np.float64(0.44583333333333336)],[np.float64(-0.16666666666666666)],[1],[0],[0],[1.0584801249933662],['target'],Saloni 2,001,2025-09-29_18h11.11.332,visual search task 1,,2025.1.1,120.45501836320676,2025-09-29 18h19.10.762819 +0530,
98,0,98,[np.float64(-0.15416666666666667)],[np.float64(0.07083333333333333)],[1],[0],[0],[1.2558492090029176],['target'],98,0,98,0,141.09078916700673,,5,141.08281624999654,141.09078916700673,141.09078916700673,0.011174708997714333,142.33873054200376,[np.float64(-0.15416666666666667)],[np.float64(0.07083333333333333)],[1],[0],[0],[1.2558492090029176],['target'],Saloni 2,001,2025-09-29_18h11.11.332,visual search task 1,,2025.1.1,120.45501836320676,2025-09-29 18h19.10.762819 +0530,
99,0,99,[np.float64(0.02361111111111111)],[np.float64(-0.2375)],[1],[0],[0],[1.0148677910037804],['target'],99,0,99,0,142.3656078750064,,10,142.3560792500066,142.3656078750064,142.3656078750064,0.017230083991307765,143.3709850830055,[np.float64(0.02361111111111111)],[np.float64(-0.2375)],[1],[0],[0],[1.0148677910037804],['target'],Saloni 2,001,2025-09-29_18h11.11.332,visual search task 1,,2025.1.1,120.45501836320676,2025-09-29 18h19.10.762819 +0530,
100,0,100,[np.float64(-0.44027777777777777)],[np.float64(0.04027777777777778)],[1],[0],[0],[1.217630500002997],['target'],100,0,100,0,143.39548679199652,,10,143.38661787500314,143.39548679199652,143.39548679199652,0.015519250009674579,144.6042960420018,[np.float64(-0.44027777777777777)],[np.float64(0.04027777777777778)],[1],[0],[0],[1.217630500002997],['target'],Saloni 2,001,2025-09-29_18h11.11.332,visual search task 1,,2025.1.1,120.45501836320676,2025-09-29 18h19.10.762819 +0530,
101,0,101,[np.float64(0.1527777777777778)],[np.float64(-0.43333333333333335)],[1],[0],[0],[1.2426465419994202],['target'],101,0,101,0,144.6201069999952,,5,144.61274366700673,144.6201069999952,144.6201069999952,0.008336291997693479,145.85545212500438,[np.float64(0.1527777777777778)],[np.float64(-0.43333333333333335)],[1],[0],[0],[1.2426465419994202],['target'],Saloni 2,001,2025-09-29_18h11.11.332,visual search task 1,,2025.1.1,120.45501836320676,2025-09-29 18h19.10.762819 +0530,
102,0,102,[np.float64(-0.2263888888888889)],[np.float64(-0.42083333333333334)],[1],[0],[0],[1.0561607500130776],['target'],102,0,102,0,145.87288187499507,,5,145.86543508300383,145.87288187499507,145.87288187499507,0.00986600000760518,146.92165679200843,[np.float64(-0.2263888888888889)],[np.float64(-0.42083333333333334)],[1],[0],[0],[1.0561607500130776],['target'],Saloni 2,001,2025-09-29_18h11.11.332,visual search task 1,,2025.1.1,120.45501836320676,2025-09-29 18h19.10.762819 +0530,
103,0,103,[np.float64(-0.1111111111111111)],[np.float64(0.10138888888888889)],[1],[0],[0],[0.9144805420073681],['target'],103,0,103,0,146.94977637499687,,10,146.93997270800173,146.94977637499687,146.94977637499687,0.018177459001890384,147.85449974999938,[np.float64(-0.1111111111111111)],[np.float64(0.10138888888888889)],[1],[0],[0],[0.9144805420073681],['target'],Saloni 2,001,2025-09-29_18h11.11.332,visual search task 1,,2025.1.1,120.45501836320676,2025-09-29 18h19.10.762819 +0530,
104,0,104,[np.float64(-0.41388888888888886)],[np.float64(-0.3375)],[1],[0],[0],[1.7527738750068238],['target'],104,0,104,0,147.87860325000656,,10,147.86911254200095,147.87860325000656,147.87860325000656,0.014500040997518227,149.62193858300452,[np.float64(-0.41388888888888886)],[np.float64(-0.3375)],[1],[0],[0],[1.7527738750068238],['target'],Saloni 2,001,2025-09-29_18h11.11.332,visual search task 1,,2025.1.1,120.45501836320676,2025-09-29 18h19.10.762819 +0530,
105,0,105,[np.float64(-0.175)],[np.float64(-0.2861111111111111)],[1],[0],[0],[0.8927815420029219],['target'],105,0,105,0,149.63730550000037,,5,149.63009137500194,149.63730550000037,149.63730550000037,0.008033874997636303,150.52293591700436,[np.float64(-0.175)],[np.float64(-0.2861111111111111)],[1],[0],[0],[0.8927815420029219],['target'],Saloni 2,001,2025-09-29_18h11.11.332,visual search task 1,,2025.1.1,120.45501836320676,2025-09-29 18h19.10.762819 +0530,
106,0,106,[np.float64(-0.3541666666666667)],[np.float64(0.3416666666666667)],[1],[0],[0],[2.1311719170043943],['target'],106,0,106,0,150.5506267919991,,10,150.54081333300564,150.5506267919991,150.5506267919991,0.017758624991984107,152.67204141699767,[np.float64(-0.3541666666666667)],[np.float64(0.3416666666666667)],[1],[0],[0],[2.1311719170043943],['target'],Saloni 2,001,2025-09-29_18h11.11.332,visual search task 1,,2025.1.1,120.45501836320676,2025-09-29 18h19.10.762819 +0530,
107,0,107,[np.float64(0.2)],[np.float64(0.3333333333333333)],[1],[0],[0],[1.4740649169980315],['target'],107,0,107,0,152.68829366700083,,5,152.6812092080072,152.68829366700083,152.68829366700083,0.009036584000568837,154.15533700000378,[np.float64(0.2)],[np.float64(0.3333333333333333)],[1],[0],[0],[1.4740649169980315],['target'],Saloni 2,001,2025-09-29_18h11.11.332,visual search task 1,,2025.1.1,120.45501836320676,2025-09-29 18h19.10.762819 +0530,
108,0,108,[np.float64(0.08333333333333333)],[np.float64(-0.3861111111111111)],[1],[0],[0],[1.808508249989245],['target'],108,0,108,0,154.1728887079953,,5,154.16504641700885,154.1728887079953,154.1728887079953,0.009589874985977076,155.97361712499696,[np.float64(0.08333333333333333)],[np.float64(-0.3861111111111111)],[1],[0],[0],[1.808508249989245],['target'],Saloni 2,001,2025-09-29_18h11.11.332,visual search task 1,,2025.1.1,120.45501836320676,2025-09-29 18h19.10.762819 +0530,
109,0,109,[np.float64(0.2111111111111111)],[np.float64(-0.24027777777777778)],[1],[0],[0],[2.1614645830122754],['target'],109,0,109,0,156.0036710830027,,10,155.99351916700834,156.0036710830027,156.0036710830027,0.019767375008086674,158.15502666700922,[np.float64(0.2111111111111111)],[np.float64(-0.24027777777777778)],[1],[0],[0],[2.1614645830122754],['target'],Saloni 2,001,2025-09-29_18h11.11.332,visual search task 1,,2025.1.1,120.45501836320676,2025-09-29 18h19.10.762819 +0530,
110,0,110,[np.float64(0.33194444444444443)],[np.float64(-0.3541666666666667)],[1],[0],[0],[1.359635208005784],['target'],110,0,110,0,158.170868583009,,5,158.16361033300927,158.170868583009,158.170868583009,0.008456916999421082,159.52330625000468,[np.float64(0.33194444444444443)],[np.float64(-0.3541666666666667)],[1],[0],[0],[1.359635208005784],['target'],Saloni 2,001,2025-09-29_18h11.11.332,visual search task 1,,2025.1.1,120.45501836320676,2025-09-29 18h19.10.762819 +0530,
111,0,111,[np.float64(0.30833333333333335)],[np.float64(-0.16527777777777777)],[1],[0],[0],[0.8543186669994611],['target'],111,0,111,0,159.54441033300827,,5,159.5347979579965,159.54441033300827,159.54441033300827,0.011364124991814606,160.3891805000021,[np.float64(0.30833333333333335)],[np.float64(-0.16527777777777777)],[1],[0],[0],[0.8543186669994611],['target'],Saloni 2,001,2025-09-29_18h11.11.332,visual search task 1,,2025.1.1,120.45501836320676,2025-09-29 18h19.10.762819 +0530,
112,0,112,"[np.float64(0.25277777777777777), np.float64(0.22083333333333333)]","[np.float64(0.08611111111111111), np.float64(0.0625)]","[1, 1]","[0, 0]","[0, 0]","[0.7889738330122782, 1.256196665999596]","[None, 'target']",112,0,112,0,160.40903266699752,,5,160.40024704200914,160.40903266699752,160.40903266699752,0.010938249994069338,161.65651745800278,"[np.float64(0.25277777777777777), np.float64(0.22083333333333333)]","[np.float64(0.08611111111111111), np.float64(0.0625)]","[1, 1]","[0, 0]","[0, 0]","[0.7889738330122782, 1.256196665999596]","[None, 'target']",Saloni 2,001,2025-09-29_18h11.11.332,visual search task 1,,2025.1.1,120.45501836320676,2025-09-29 18h19.10.762819 +0530,
113,0,113,[np.float64(0.16805555555555557)],[np.float64(0.10972222222222222)],[1],[0],[0],[0.5820174170075916],['target'],113,0,113,0,161.67872791700938,,5,161.66864524999983,161.67872791700938,161.67872791700938,0.011956875008763745,162.25075145800656,[np.float64(0.16805555555555557)],[np.float64(0.10972222222222222)],[1],[0],[0],[0.5820174170075916],['target'],Saloni 2,001,2025-09-29_18h11.11.332,visual search task 1,,2025.1.1,120.45501836320676,2025-09-29 18h19.10.762819 +0530,
114,0,114,[np.float64(0.09027777777777778)],[np.float64(0.36666666666666664)],[1],[0],[0],[0.8568932920024963],['target'],114,0,114,0,162.27570979199663,,5,162.2656072499958,162.27570979199663,162.27570979199663,0.014684750000014901,163.12255379199632,[np.float64(0.09027777777777778)],[np.float64(0.36666666666666664)],[1],[0],[0],[0.8568932920024963],['target'],Saloni 2,001,2025-09-29_18h11.11.332,visual search task 1,,2025.1.1,120.45501836320676,2025-09-29 18h19.10.762819 +0530,
115,0,115,[np.float64(0.14444444444444443)],[np.float64(0.3527777777777778)],[1],[0],[0],[1.3155704579985468],['target'],115,0,115,0,163.15056920799543,,10,163.14067720800813,163.15056920799543,163.15056920799543,0.018002666998654604,164.45630416700442,[np.float64(0.14444444444444443)],[np.float64(0.3527777777777778)],[1],[0],[0],[1.3155704579985468],['target'],Saloni 2,001,2025-09-29_18h11.11.332,visual search task 1,,2025.1.1,120.45501836320676,2025-09-29 18h19.10.762819 +0530,
116,0,116,[np.float64(-0.1763888888888889)],[np.float64(-0.14444444444444443)],[1],[0],[0],[1.022343999997247],['target'],116,0,116,0,164.47423833300127,,5,164.46695299999556,164.47423833300127,164.47423833300127,0.010466500010807067,165.48934450000525,[np.float64(-0.1763888888888889)],[np.float64(-0.14444444444444443)],[1],[0],[0],[1.022343999997247],['target'],Saloni 2,001,2025-09-29_18h11.11.332,visual search task 1,,2025.1.1,120.45501836320676,2025-09-29 18h19.10.762819 +0530,
117,0,117,[np.float64(-0.30277777777777776)],[np.float64(0.14444444444444443)],[1],[0],[0],[2.299143041993375],['target'],117,0,117,0,165.5167145000014,,10,165.50703058300132,165.5167145000014,165.5167145000014,0.017567749993759207,167.80621187500947,[np.float64(-0.30277777777777776)],[np.float64(0.14444444444444443)],[1],[0],[0],[2.299143041993375],['target'],Saloni 2,001,2025-09-29_18h11.11.332,visual search task 1,,2025.1.1,120.45501836320676,2025-09-29 18h19.10.762819 +0530,
118,0,118,[np.float64(-0.41388888888888886)],[np.float64(0.02638888888888889)],[1],[0],[0],[1.0247287499951199],['target'],118,0,118,0,167.82186458300566,,5,167.81451187499624,167.82186458300566,167.82186458300566,0.008189165993826464,168.83930212500854,[np.float64(-0.41388888888888886)],[np.float64(0.02638888888888889)],[1],[0],[0],[1.0247287499951199],['target'],Saloni 2,001,2025-09-29_18h11.11.332,visual search task 1,,2025.1.1,120.45501836320676,2025-09-29 18h19.10.762819 +0530,
119,0,119,[np.float64(0.2652777777777778)],[np.float64(0.2916666666666667)],[1],[0],[0],[1.24735841700749],['target'],119,0,119,0,168.86860691700713,,10,168.8582843750046,168.86860691700713,168.86860691700713,0.01884566599619575,170.1056915000081,[np.float64(0.2652777777777778)],[np.float64(0.2916666666666667)],[1],[0],[0],[1.24735841700749],['target'],Saloni 2,001,2025-09-29_18h11.11.332,visual search task 1,,2025.1.1,120.45501836320676,2025-09-29 18h19.10.762819 +0530,
120,0,120,[np.float64(-0.11388888888888889)],[np.float64(0.4666666666666667)],[1],[0],[0],[1.741986666995217],['target'],120,0,120,0,170.12216770800296,,5,170.11471133300802,170.12216770800296,170.12216770800296,0.008890917000826448,171.85676054199575,[np.float64(-0.11388888888888889)],[np.float64(0.4666666666666667)],[1],[0],[0],[1.741986666995217],['target'],Saloni 2,001,2025-09-29_18h11.11.332,visual search task 1,,2025.1.1,120.45501836320676,2025-09-29 18h19.10.762819 +0530,
121,0,121,[np.float64(0.36527777777777776)],[np.float64(0.05694444444444444)],[1],[0],[0],[1.4610796249908162],['target'],121,0,121,0,171.88827970800048,,10,171.87786370799586,171.88827970800048,171.88827970800048,0.02095341701351572,173.3389828750078,[np.float64(0.36527777777777776)],[np.float64(0.05694444444444444)],[1],[0],[0],[1.4610796249908162],['target'],Saloni 2,001,2025-09-29_18h11.11.332,visual search task 1,,2025.1.1,120.45501836320676,2025-09-29 18h19.10.762819 +0530,
122,0,122,[np.float64(-0.3055555555555556)],[np.float64(-0.17083333333333334)],[1],[0],[0],[1.083729250007309],['target'],122,0,122,0,173.36457558300754,,10,173.35538575000828,173.36457558300754,173.36457558300754,0.01627849999931641,174.439166791999,[np.float64(-0.3055555555555556)],[np.float64(-0.17083333333333334)],[1],[0],[0],[1.083729250007309],['target'],Saloni 2,001,2025-09-29_18h11.11.332,visual search task 1,,2025.1.1,120.45501836320676,2025-09-29 18h19.10.762819 +0530,
123,0,123,[np.float64(-0.05138888888888889)],[np.float64(0.16666666666666666)],[1],[0],[0],[0.9745921659923624],['target'],123,0,123,0,174.4562179170025,,5,174.44833875000768,174.4562179170025,174.4562179170025,0.009056167007656768,175.42299820799963,[np.float64(-0.05138888888888889)],[np.float64(0.16666666666666666)],[1],[0],[0],[0.9745921659923624],['target'],Saloni 2,001,2025-09-29_18h11.11.332,visual search task 1,,2025.1.1,120.45501836320676,2025-09-29 18h19.10.762819 +0530,
124,0,124,[np.float64(0.4597222222222222)],[np.float64(0.15694444444444444)],[1],[0],[0],[1.172754667000845],['target'],124,0,124,0,175.44085900000937,,5,175.43318983299832,175.44085900000937,175.44085900000937,0.010057874998892657,176.6060028750071,[np.float64(0.4597222222222222)],[np.float64(0.15694444444444444)],[1],[0],[0],[1.172754667000845],['target'],Saloni 2,001,2025-09-29_18h11.11.332,visual search task 1,,2025.1.1,120.45501836320676,2025-09-29 18h19.10.762819 +0530,
125,0,125,[np.float64(-0.10833333333333334)],[np.float64(-0.2847222222222222)],[1],[0],[0],[1.1231810000026599],['target'],125,0,125,0,176.62616991699906,,5,176.61721837500227,176.62616991699906,176.62616991699906,0.01108475000364706,177.7404571250081,[np.float64(-0.10833333333333334)],[np.float64(-0.2847222222222222)],[1],[0],[0],[1.1231810000026599],['target'],Saloni 2,001,2025-09-29_18h11.11.332,visual search task 1,,2025.1.1,120.45501836320676,2025-09-29 18h19.10.762819 +0530,
126,0,126,[np.float64(-0.24722222222222223)],[np.float64(-0.05277777777777778)],[1],[0],[0],[1.0880167089926545],['target'],126,0,126,0,177.7597297080065,,5,177.7516287920007,177.7597297080065,177.7597297080065,0.01104229201155249,178.8397094999964,[np.float64(-0.24722222222222223)],[np.float64(-0.05277777777777778)],[1],[0],[0],[1.0880167089926545],['target'],Saloni 2,001,2025-09-29_18h11.11.332,visual search task 1,,2025.1.1,120.45501836320676,2025-09-29 18h19.10.762819 +0530,
127,0,127,[np.float64(0.4041666666666667)],[np.float64(0.19583333333333333)],[1],[0],[0],[1.6302779580000788],['target'],127,0,127,0,178.86906087500392,,10,178.85856283300382,178.86906087500392,178.86906087500392,0.018732083990471438,180.4888786250085,[np.float64(0.4041666666666667)],[np.float64(0.19583333333333333)],[1],[0],[0],[1.6302779580000788],['target'],Saloni 2,001,2025-09-29_18h11.11.332,visual search task 1,,2025.1.1,120.45501836320676,2025-09-29 18h19.10.762819 +0530,
128,0,128,[np.float64(-0.0375)],[np.float64(0.30694444444444446)],[1],[0],[0],[0.9698007499973755],['target'],128,0,128,0,180.51262166700326,,10,180.50317995800287,180.51262166700326,180.51262166700326,0.014173582996590994,181.47304195800098,[np.float64(-0.0375)],[np.float64(0.30694444444444446)],[1],[0],[0],[0.9698007499973755],['target'],Saloni 2,001,2025-09-29_18h11.11.332,visual search task 1,,2025.1.1,120.45501836320676,2025-09-29 18h19.10.762819 +0530,
129,0,129,[np.float64(-0.42777777777777776)],[np.float64(-0.39861111111111114)],[1],[0],[0],[1.9174828329996672],['target'],129,0,129,0,181.49781825000537,,10,181.4887437080033,181.49781825000537,181.49781825000537,0.01557416700234171,183.40627270800178,[np.float64(-0.42777777777777776)],[np.float64(-0.39861111111111114)],[1],[0],[0],[1.9174828329996672],['target'],Saloni 2,001,2025-09-29_18h11.11.332,visual search task 1,,2025.1.1,120.45501836320676,2025-09-29 18h19.10.762819 +0530,
130,0,130,[np.float64(-0.09027777777777778)],[np.float64(0.022222222222222223)],[1],[0],[0],[1.052417458005948],['target'],130,0,130,0,183.42935487499926,,10,183.42036333300348,183.42935487499926,183.42935487499926,0.013974084009532817,184.47283400000015,[np.float64(-0.09027777777777778)],[np.float64(0.022222222222222223)],[1],[0],[0],[1.052417458005948],['target'],Saloni 2,001,2025-09-29_18h11.11.332,visual search task 1,,2025.1.1,120.45501836320676,2025-09-29 18h19.10.762819 +0530,
131,0,131,[np.float64(-0.31805555555555554)],[np.float64(0.09583333333333334)],[1],[0],[0],[1.058700666995719],['target'],131,0,131,0,184.4881193330075,,5,184.48087995800597,184.4881193330075,184.4881193330075,0.007925083002191968,185.5396521250077,[np.float64(-0.31805555555555554)],[np.float64(0.09583333333333334)],[1],[0],[0],[1.058700666995719],['target'],Saloni 2,001,2025-09-29_18h11.11.332,visual search task 1,,2025.1.1,120.45501836320676,2025-09-29 18h19.10.762819 +0530,
132,0,132,[np.float64(-0.22916666666666666)],[np.float64(0.06805555555555555)],[1],[0],[0],[0.9484865830017952],['target'],132,0,132,0,185.5687087920087,,10,185.55756970800576,185.5687087920087,185.5687087920087,0.01780358300311491,186.50609566700587,[np.float64(-0.22916666666666666)],[np.float64(0.06805555555555555)],[1],[0],[0],[0.9484865830017952],['target'],Saloni 2,001,2025-09-29_18h11.11.332,visual search task 1,,2025.1.1,120.45501836320676,2025-09-29 18h19.10.762819 +0530,
133,0,133,[np.float64(-0.5152777777777777)],[np.float64(0.39444444444444443)],[1],[0],[0],[2.05163979200006],['target'],133,0,133,0,186.53511729200545,,10,186.5225552500051,186.53511729200545,186.53511729200545,0.016331542006810196,188.57424587500282,[np.float64(-0.5152777777777777)],[np.float64(0.39444444444444443)],[1],[0],[0],[2.05163979200006],['target'],Saloni 2,001,2025-09-29_18h11.11.332,visual search task 1,,2025.1.1,120.45501836320676,2025-09-29 18h19.10.762819 +0530,
134,0,134,[np.float64(0.2791666666666667)],[np.float64(0.46805555555555556)],[1],[0],[0],[1.9175416660000337],['target'],134,0,134,0,188.5983241250069,,10,188.58906970800308,188.5983241250069,188.5983241250069,0.014708791000884958,190.50666462500521,[np.float64(0.2791666666666667)],[np.float64(0.46805555555555556)],[1],[0],[0],[1.9175416660000337],['target'],Saloni 2,001,2025-09-29_18h11.11.332,visual search task 1,,2025.1.1,120.45501836320676,2025-09-29 18h19.10.762819 +0530,
135,0,135,[np.float64(0.5180555555555556)],[np.float64(-0.3)],[1],[0],[0],[1.4196662089962047],['target'],135,0,135,0,190.53016033300082,,10,190.5212492080027,190.53016033300082,190.53016033300082,0.01447241599089466,191.9409697920055,[np.float64(0.5180555555555556)],[np.float64(-0.3)],[1],[0],[0],[1.4196662089962047],['target'],Saloni 2,001,2025-09-29_18h11.11.332,visual search task 1,,2025.1.1,120.45501836320676,2025-09-29 18h19.10.762819 +0530,
136,0,136,[np.float64(0.38472222222222224)],[np.float64(0.1361111111111111)],[1],[0],[0],[1.0492779580090428],['target'],136,0,136,0,191.96932662499603,,10,191.95713908299513,191.96932662499603,191.96932662499603,0.016040957998484373,193.0064691669977,[np.float64(0.38472222222222224)],[np.float64(0.1361111111111111)],[1],[0],[0],[1.0492779580090428],['target'],Saloni 2,001,2025-09-29_18h11.11.332,visual search task 1,,2025.1.1,120.45501836320676,2025-09-29 18h19.10.762819 +0530,
137,0,137,[np.float64(0.029166666666666667)],[np.float64(-0.07916666666666666)],[1],[0],[0],[1.0760451249952894],['target'],137,0,137,0,193.02200220800296,,5,193.01449095799762,193.02200220800296,193.02200220800296,0.007909709005616605,194.0906141250016,[np.float64(0.029166666666666667)],[np.float64(-0.07916666666666666)],[1],[0],[0],[1.0760451249952894],['target'],Saloni 2,001,2025-09-29_18h11.11.332,visual search task 1,,2025.1.1,120.45501836320676,2025-09-29 18h19.10.762819 +0530,
138,0,138,[np.float64(0.19027777777777777)],[np.float64(0.04722222222222222)],[1],[0],[0],[0.7729282910004258],['target'],138,0,138,0,194.10863137499837,,5,194.10084487500717,194.10863137499837,194.10863137499837,0.010100083003635518,194.87384795800608,[np.float64(0.19027777777777777)],[np.float64(0.04722222222222222)],[1],[0],[0],[0.7729282910004258],['target'],Saloni 2,001,2025-09-29_18h11.11.332,visual search task 1,,2025.1.1,120.45501836320676,2025-09-29 18h19.10.762819 +0530,
139,0,139,[np.float64(-0.17222222222222222)],[np.float64(0.3236111111111111)],[1],[0],[0],[2.864851042002556],['target'],139,0,139,0,194.90309166700172,,10,194.89263316700817,194.90309166700172,194.90309166700172,0.018652541999472305,197.75752316700527,[np.float64(-0.17222222222222222)],[np.float64(0.3236111111111111)],[1],[0],[0],[2.864851042002556],['target'],Saloni 2,001,2025-09-29_18h11.11.332,visual search task 1,,2025.1.1,120.45501836320676,2025-09-29 18h19.10.762819 +0530,
140,0,140,[np.float64(-0.3611111111111111)],[np.float64(-0.38333333333333336)],[1],[0],[0],[1.7028887499909615],['target'],140,0,140,0,197.78083791700192,,10,197.77174537500832,197.78083791700192,197.78083791700192,0.014088749987422489,199.47468933300115,[np.float64(-0.3611111111111111)],[np.float64(-0.38333333333333336)],[1],[0],[0],[1.7028887499909615],['target'],Saloni 2,001,2025-09-29_18h11.11.332,visual search task 1,,2025.1.1,120.45501836320676,2025-09-29 18h19.10.762819 +0530,
141,0,141,[np.float64(-0.43333333333333335)],[np.float64(-0.1986111111111111)],[1],[0],[0],[1.0161928330053343],['target'],141,0,141,0,199.49940633300866,,10,199.49005408299854,199.49940633300866,199.49940633300866,0.015234499995131046,200.5062988330028,[np.float64(-0.43333333333333335)],[np.float64(-0.1986111111111111)],[1],[0],[0],[1.0161928330053343],['target'],Saloni 2,001,2025-09-29_18h11.11.332,visual search task 1,,2025.1.1,120.45501836320676,2025-09-29 18h19.10.762819 +0530,
142,0,142,[np.float64(0.03611111111111111)],[np.float64(-0.05416666666666667)],[1],[0],[0],[1.0842951250087935],['target'],142,0,142,0,200.53156275000947,,10,200.52205949999916,200.53156275000947,200.53156275000947,0.015650165994884446,201.60639708300005,[np.float64(0.03611111111111111)],[np.float64(-0.05416666666666667)],[1],[0],[0],[1.0842951250087935],['target'],Saloni 2,001,2025-09-29_18h11.11.332,visual search task 1,,2025.1.1,120.45501836320676,2025-09-29 18h19.10.762819 +0530,
143,0,143,[np.float64(0.39861111111111114)],[np.float64(0.3486111111111111)],[1],[0],[0],[1.9198287500039442],['target'],143,0,143,0,201.63099629200588,,10,201.62159291699936,201.63099629200588,201.63099629200588,0.015072832989972085,203.54148245800752,[np.float64(0.39861111111111114)],[np.float64(0.3486111111111111)],[1],[0],[0],[1.9198287500039442],['target'],Saloni 2,001,2025-09-29_18h11.11.332,visual search task 1,,2025.1.1,120.45501836320676,2025-09-29 18h19.10.762819 +0530,
144,0,144,[np.float64(-0.06805555555555555)],[np.float64(0.1)],[1],[0],[0],[1.0169513750006445],['target'],144,0,144,0,203.5659986249957,,10,203.55673366700648,203.5659986249957,203.5659986249957,0.015121500007808208,204.57373416700284,[np.float64(-0.06805555555555555)],[np.float64(0.1)],[1],[0],[0],[1.0169513750006445],['target'],Saloni 2,001,2025-09-29_18h11.11.332,visual search task 1,,2025.1.1,120.45501836320676,2025-09-29 18h19.10.762819 +0530,
145,0,145,[np.float64(-0.3416666666666667)],[np.float64(0.45)],[1],[0],[0],[1.7591509580088314],['target'],145,0,145,0,204.5891966670024,,5,204.58190649999597,204.5891966670024,204.5891966670024,0.008062125009018928,206.34113154200895,[np.float64(-0.3416666666666667)],[np.float64(0.45)],[1],[0],[0],[1.7591509580088314],['target'],Saloni 2,001,2025-09-29_18h11.11.332,visual search task 1,,2025.1.1,120.45501836320676,2025-09-29 18h19.10.762819 +0530,
146,0,146,[np.float64(0.05416666666666667)],[np.float64(-0.3402777777777778)],[1],[0],[0],[1.1212235830025747],['target'],146,0,146,0,206.36013870799798,,5,206.35204962499847,206.36013870799798,206.36013870799798,0.01078733301255852,207.47333129199978,[np.float64(0.05416666666666667)],[np.float64(-0.3402777777777778)],[1],[0],[0],[1.1212235830025747],['target'],Saloni 2,001,2025-09-29_18h11.11.332,visual search task 1,,2025.1.1,120.45501836320676,2025-09-29 18h19.10.762819 +0530,
147,0,147,[np.float64(-0.1625)],[np.float64(0.4125)],[1],[0],[0],[1.331772457997431],['target'],147,0,147,0,207.50154720799765,,10,207.49156262500037,207.50154720799765,207.50154720799765,0.01811258398811333,208.82337833300699,[np.float64(-0.1625)],[np.float64(0.4125)],[1],[0],[0],[1.331772457997431],['target'],Saloni 2,001,2025-09-29_18h11.11.332,visual search task 1,,2025.1.1,120.45501836320676,2025-09-29 18h19.10.762819 +0530,
148,0,148,"[np.float64(0.12083333333333333), np.float64(0.14583333333333334)]","[np.float64(-0.3055555555555556), np.float64(-0.3111111111111111)]","[1, 1]","[0, 0]","[0, 0]","[1.108398540993221, 1.908686624999973]","[None, 'target']",148,0,148,0,208.83952362500713,,5,208.83221695800603,208.83952362500713,208.83952362500713,0.008704542007762939,210.74097566699493,"[np.float64(0.12083333333333333), np.float64(0.14583333333333334)]","[np.float64(-0.3055555555555556), np.float64(-0.3111111111111111)]","[1, 1]","[0, 0]","[0, 0]","[1.108398540993221, 1.908686624999973]","[None, 'target']",Saloni 2,001,2025-09-29_18h11.11.332,visual search task 1,,2025.1.1,120.45501836320676,2025-09-29 18h19.10.762819 +0530,
149,0,149,[np.float64(-0.32916666666666666)],[np.float64(0.05138888888888889)],[1],[0],[0],[0.9887847079953644],['target'],149,0,149,0,210.75939508300507,,5,210.75159858299594,210.75939508300507,210.75939508300507,0.010486999992281199,211.7404360829969,[np.float64(-0.32916666666666666)],[np.float64(0.05138888888888889)],[1],[0],[0],[0.9887847079953644],['target'],Saloni 2,001,2025-09-29_18h11.11.332,visual search task 1,,2025.1.1,120.45501836320676,2025-09-29 18h19.10.762819 +0530,
150,0,150,[np.float64(-0.1875)],[np.float64(0.16944444444444445)],[1],[0],[0],[0.9067089169984683],['target'],150,0,150,0,211.7580581670045,,5,211.75006904199836,211.7580581670045,211.7580581670045,0.009531124989734963,212.65684125000553,[np.float64(-0.1875)],[np.float64(0.16944444444444445)],[1],[0],[0],[0.9067089169984683],['target'],Saloni 2,001,2025-09-29_18h11.11.332,visual search task 1,,2025.1.1,120.45501836320676,2025-09-29 18h19.10.762819 +0530,
151,0,151,[np.float64(0.1875)],[np.float64(0.15833333333333333)],[1],[0],[0],[0.874664249990019],['target'],151,0,151,0,212.67414324999845,,5,212.6664735420054,212.67414324999845,212.67414324999845,0.009513208002317697,213.54120904199954,[np.float64(0.1875)],[np.float64(0.15833333333333333)],[1],[0],[0],[0.874664249990019],['target'],Saloni 2,001,2025-09-29_18h11.11.332,visual search task 1,,2025.1.1,120.45501836320676,2025-09-29 18h19.10.762819 +0530,
152,0,152,[np.float64(-0.3375)],[np.float64(-0.1625)],[1],[0],[0],[0.9222542909992626],['target'],152,0,152,0,213.55983929200738,,5,213.55171841700212,213.55983929200738,213.55983929200738,0.010382125008618459,214.47403366700746,[np.float64(-0.3375)],[np.float64(-0.1625)],[1],[0],[0],[0.9222542909992626],['target'],Saloni 2,001,2025-09-29_18h11.11.332,visual search task 1,,2025.1.1,120.45501836320676,2025-09-29 18h19.10.762819 +0530,
153,0,153,[np.float64(0.004166666666666667)],[np.float64(-0.2722222222222222)],[1],[0],[0],[1.1721473749930738],['target'],153,0,153,0,214.49229249999917,,5,214.4842692920065,214.49229249999917,214.49229249999917,0.010116833000211045,215.6564735419961,[np.float64(0.004166666666666667)],[np.float64(-0.2722222222222222)],[1],[0],[0],[1.1721473749930738],['target'],Saloni 2,001,2025-09-29_18h11.11.332,visual search task 1,,2025.1.1,120.45501836320676,2025-09-29 18h19.10.762819 +0530,
154,0,154,[np.float64(-0.38333333333333336)],[np.float64(0.12083333333333333)],[1],[0],[0],[1.0413306249974994],['target'],154,0,154,0,215.67479849999654,,5,215.66672700000345,215.67479849999654,215.67479849999654,0.010143459003302269,216.70813749999797,[np.float64(-0.38333333333333336)],[np.float64(0.12083333333333333)],[1],[0],[0],[1.0413306249974994],['target'],Saloni 2,001,2025-09-29_18h11.11.332,visual search task 1,,2025.1.1,120.45501836320676,2025-09-29 18h19.10.762819 +0530,
155,0,155,[np.float64(0.20833333333333334)],[np.float64(-0.1375)],[1],[0],[0],[1.0726492920075543],['target'],155,0,155,0,216.72632120799972,,5,216.7187004580046,216.72632120799972,216.72632120799972,0.010429833011585288,217.79141791700386,[np.float64(0.20833333333333334)],[np.float64(-0.1375)],[1],[0],[0],[1.0726492920075543],['target'],Saloni 2,001,2025-09-29_18h11.11.332,visual search task 1,,2025.1.1,120.45501836320676,2025-09-29 18h19.10.762819 +0530,
156,0,156,[np.float64(0.24305555555555555)],[np.float64(-0.3958333333333333)],[1],[0],[0],[1.9051368340005865],['target'],156,0,156,0,217.81136833300116,,5,217.80286199999682,217.81136833300116,217.81136833300116,0.01131333300145343,219.70806995799649,[np.float64(0.24305555555555555)],[np.float64(-0.3958333333333333)],[1],[0],[0],[1.9051368340005865],['target'],Saloni 2,001,2025-09-29_18h11.11.332,visual search task 1,,2025.1.1,120.45501836320676,2025-09-29 18h19.10.762819 +0530,
157,0,157,[np.float64(0.46111111111111114)],[np.float64(-0.31666666666666665)],[1],[0],[0],[1.2063445420062635],['target'],157,0,157,0,219.72696991699922,,5,219.71856379200472,219.72696991699922,219.72696991699922,0.010361332999309525,220.92497900000308,[np.float64(0.46111111111111114)],[np.float64(-0.31666666666666665)],[1],[0],[0],[1.2063445420062635],['target'],Saloni 2,001,2025-09-29_18h11.11.332,visual search task 1,,2025.1.1,120.45501836320676,2025-09-29 18h19.10.762819 +0530,
158,0,158,[np.float64(-0.044444444444444446)],[np.float64(-0.375)],[1],[0],[0],[0.8395244580024155],['target'],158,0,158,0,220.94441891700262,,5,220.93585675000213,220.94441891700262,220.94441891700262,0.010746625004685484,221.7754562080081,[np.float64(-0.044444444444444446)],[np.float64(-0.375)],[1],[0],[0],[0.8395244580024155],['target'],Saloni 2,001,2025-09-29_18h11.11.332,visual search task 1,,2025.1.1,120.45501836320676,2025-09-29 18h19.10.762819 +0530,
159,0,159,[np.float64(0.02638888888888889)],[np.float64(-0.425)],[1],[0],[0],[0.7860446669947123],['target'],159,0,159,0,221.7976174170035,,5,221.78807266699732,221.7976174170035,221.7976174170035,0.012471416994230822,222.57416883300175,[np.float64(0.02638888888888889)],[np.float64(-0.425)],[1],[0],[0],[0.7860446669947123],['target'],Saloni 2,001,2025-09-29_18h11.11.332,visual search task 1,,2025.1.1,120.45501836320676,2025-09-29 18h19.10.762819 +0530,
160,0,160,[np.float64(0.32083333333333336)],[np.float64(0.48055555555555557)],[1],[0],[0],[2.6813898330001393],['target'],160,0,160,0,222.60480216699943,,10,222.5927007499995,222.60480216699943,222.60480216699943,0.01836412500415463,225.2741367080016,[np.float64(0.32083333333333336)],[np.float64(0.48055555555555557)],[1],[0],[0],[2.6813898330001393],['target'],Saloni 2,001,2025-09-29_18h11.11.332,visual search task 1,,2025.1.1,120.45501836320676,2025-09-29 18h19.10.762819 +0530,
161,0,161,[np.float64(0.15555555555555556)],[np.float64(0.016666666666666666)],[1],[0],[0],[1.0028015419957228],['target'],161,0,161,0,225.29832108299888,,10,225.28875987500942,225.29832108299888,225.29832108299888,0.01451245800126344,226.29161575000035,[np.float64(0.15555555555555556)],[np.float64(0.016666666666666666)],[1],[0],[0],[1.0028015419957228],['target'],Saloni 2,001,2025-09-29_18h11.11.332,visual search task 1,,2025.1.1,120.45501836320676,2025-09-29 18h19.10.762819 +0530,
162,0,162,[np.float64(-0.3736111111111111)],[np.float64(0.25277777777777777)],[1],[0],[0],[1.2410258750023786],['target'],162,0,162,0,226.30741062499874,,5,226.30032716700225,226.30741062499874,226.30741062499874,0.00858262499968987,227.5414245830034,[np.float64(-0.3736111111111111)],[np.float64(0.25277777777777777)],[1],[0],[0],[1.2410258750023786],['target'],Saloni 2,001,2025-09-29_18h11.11.332,visual search task 1,,2025.1.1,120.45501836320676,2025-09-29 18h19.10.762819 +0530,
163,0,163,[np.float64(0.06944444444444445)],[np.float64(0.3416666666666667)],[1],[0],[0],[0.8390207920019748],['target'],163,0,163,0,227.56045783300942,,5,227.5520868330059,227.56045783300942,227.56045783300942,0.010550791004789062,228.39116466700216,[np.float64(0.06944444444444445)],[np.float64(0.3416666666666667)],[1],[0],[0],[0.8390207920019748],['target'],Saloni 2,001,2025-09-29_18h11.11.332,visual search task 1,,2025.1.1,120.45501836320676,2025-09-29 18h19.10.762819 +0530,
164,0,164,[np.float64(-0.3888888888888889)],[np.float64(-0.07361111111111111)],[1],[0],[0],[0.824117500000284],['target'],164,0,164,0,228.40849191699817,,5,228.40088091700454,228.40849191699817,228.40849191699817,0.00959904100454878,229.22504729199864,[np.float64(-0.3888888888888889)],[np.float64(-0.07361111111111111)],[1],[0],[0],[0.824117500000284],['target'],Saloni 2,001,2025-09-29_18h11.11.332,visual search task 1,,2025.1.1,120.45501836320676,2025-09-29 18h19.10.762819 +0530,
165,0,165,"[np.float64(-0.42083333333333334), np.float64(-0.35833333333333334)]","[np.float64(0.0125), np.float64(0.034722222222222224)]","[1, 1]","[0, 0]","[0, 0]","[0.8223450000077719, 1.4561720409983536]","[None, 'target']",165,0,165,0,229.24248220800655,,5,229.23515533300815,229.24248220800655,229.24248220800655,0.009976417000871152,230.69138474999636,"[np.float64(-0.42083333333333334), np.float64(-0.35833333333333334)]","[np.float64(0.0125), np.float64(0.034722222222222224)]","[1, 1]","[0, 0]","[0, 0]","[0.8223450000077719, 1.4561720409983536]","[None, 'target']",Saloni 2,001,2025-09-29_18h11.11.332,visual search task 1,,2025.1.1,120.45501836320676,2025-09-29 18h19.10.762819 +0530,
166,0,166,[np.float64(-0.34305555555555556)],[np.float64(0.11527777777777778)],[1],[0],[0],[0.6893000419950113],['target'],166,0,166,0,230.7105429170042,,5,230.7020942500094,230.7105429170042,230.7105429170042,0.010573207997367717,231.3914581249992,[np.float64(-0.34305555555555556)],[np.float64(0.11527777777777778)],[1],[0],[0],[0.6893000419950113],['target'],Saloni 2,001,2025-09-29_18h11.11.332,visual search task 1,,2025.1.1,120.45501836320676,2025-09-29 18h19.10.762819 +0530,
167,0,167,[np.float64(-0.019444444444444445)],[np.float64(0.14027777777777778)],[1],[0],[0],[0.9227360829972895],['target'],167,0,167,0,231.41018895800516,,5,231.40206737500557,231.41018895800516,231.41018895800516,0.010479208009201102,232.32486687500204,[np.float64(-0.019444444444444445)],[np.float64(0.14027777777777778)],[1],[0],[0],[0.9227360829972895],['target'],Saloni 2,001,2025-09-29_18h11.11.332,visual search task 1,,2025.1.1,120.45501836320676,2025-09-29 18h19.10.762819 +0530,
168,0,168,[np.float64(0.4986111111111111)],[np.float64(0.3958333333333333)],[1],[0],[0],[1.9156290829996578],['target'],168,0,168,0,232.3524707500037,,10,232.34236133300874,232.3524707500037,232.3524707500037,0.01737716599018313,234.2580414999975,[np.float64(0.4986111111111111)],[np.float64(0.3958333333333333)],[1],[0],[0],[1.9156290829996578],['target'],Saloni 2,001,2025-09-29_18h11.11.332,visual search task 1,,2025.1.1,120.45501836320676,2025-09-29 18h19.10.762819 +0530,
169,0,169,[np.float64(0.04027777777777778)],[np.float64(0.3263888888888889)],[1],[0],[0],[1.733382291989983],['target'],169,0,169,0,234.28380754200043,,10,234.27443929199944,234.28380754200043,234.28380754200043,0.016256333008641377,236.00787204199878,[np.float64(0.04027777777777778)],[np.float64(0.3263888888888889)],[1],[0],[0],[1.733382291989983],['target'],Saloni 2,001,2025-09-29_18h11.11.332,visual search task 1,,2025.1.1,120.45501836320676,2025-09-29 18h19.10.762819 +0530,
170,0,170,[np.float64(0.06666666666666667)],[np.float64(0.2777777777777778)],[1],[0],[0],[0.5752561249973951],['target'],170,0,170,0,236.02432766700804,,5,236.0167834580061,236.02432766700804,236.02432766700804,0.00879362499108538,236.59211004200915,[np.float64(0.06666666666666667)],[np.float64(0.2777777777777778)],[1],[0],[0],[0.5752561249973951],['target'],Saloni 2,001,2025-09-29_18h11.11.332,visual search task 1,,2025.1.1,120.45501836320676,2025-09-29 18h19.10.762819 +0530,
171,0,171,[np.float64(-0.1)],[np.float64(-0.44027777777777777)],[1],[0],[0],[1.4036157910013571],['target'],171,0,171,0,236.61362337500032,,5,236.6041033329966,236.61362337500032,236.61362337500032,0.011847916000988334,238.0077836249984,[np.float64(-0.1)],[np.float64(-0.44027777777777777)],[1],[0],[0],[1.4036157910013571],['target'],Saloni 2,001,2025-09-29_18h11.11.332,visual search task 1,,2025.1.1,120.45501836320676,2025-09-29 18h19.10.762819 +0530,
172,0,172,[np.float64(0.07916666666666666)],[np.float64(0.1763888888888889)],[1],[0],[0],[1.023601291992236],['target'],172,0,172,0,238.02668245800305,,5,238.01905266700487,238.02668245800305,238.02668245800305,0.011151333004818298,239.04272366700752,[np.float64(0.07916666666666666)],[np.float64(0.1763888888888889)],[1],[0],[0],[1.023601291992236],['target'],Saloni 2,001,2025-09-29_18h11.11.332,visual search task 1,,2025.1.1,120.45501836320676,2025-09-29 18h19.10.762819 +0530,
173,0,173,[np.float64(-0.03194444444444444)],[np.float64(-0.10138888888888889)],[1],[0],[0],[0.8390879579965258],['target'],173,0,173,0,239.06092766700021,,5,239.0532632079994,239.06092766700021,239.06092766700021,0.010407249996205792,239.89241070800927,[np.float64(-0.03194444444444444)],[np.float64(-0.10138888888888889)],[1],[0],[0],[0.8390879579965258],['target'],Saloni 2,001,2025-09-29_18h11.11.332,visual search task 1,,2025.1.1,120.45501836320676,2025-09-29 18h19.10.762819 +0530,
174,0,174,[np.float64(-0.21666666666666667)],[np.float64(0.3625)],[1],[0],[0],[1.3984090830053901],['target'],174,0,174,0,239.9192472499999,,10,239.90964512500796,239.9192472499999,239.9192472499999,0.01711666698975023,241.30809862499882,[np.float64(-0.21666666666666667)],[np.float64(0.3625)],[1],[0],[0],[1.3984090830053901],['target'],Saloni 2,001,2025-09-29_18h11.11.332,visual search task 1,,2025.1.1,120.45501836320676,2025-09-29 18h19.10.762819 +0530,
175,0,175,[np.float64(0.2847222222222222)],[np.float64(-0.08888888888888889)],[1],[0],[0],[0.9586878330010222],['target'],175,0,175,0,241.32292420799786,,5,241.31589162499586,241.32292420799786,241.32292420799786,0.007681249990127981,242.27464800000598,[np.float64(0.2847222222222222)],[np.float64(-0.08888888888888889)],[1],[0],[0],[0.9586878330010222],['target'],Saloni 2,001,2025-09-29_18h11.11.332,visual search task 1,,2025.1.1,120.45501836320676,2025-09-29 18h19.10.762819 +0530,
176,0,176,[np.float64(0.02638888888888889)],[np.float64(-0.1736111111111111)],[1],[0],[0],[0.7237231250037439],['target'],176,0,176,0,242.29211529200256,,5,242.2847082500084,242.29211529200256,242.29211529200256,0.009945000012521632,243.00849387500784,[np.float64(0.02638888888888889)],[np.float64(-0.1736111111111111)],[1],[0],[0],[0.7237231250037439],['target'],Saloni 2,001,2025-09-29_18h11.11.332,visual search task 1,,2025.1.1,120.45501836320676,2025-09-29 18h19.10.762819 +0530,
177,0,177,[np.float64(0.11666666666666667)],[np.float64(0.0763888888888889)],[1],[0],[0],[1.4131641249987297],['target'],177,0,177,0,243.03750970799592,,10,243.02753654200933,243.03750970799592,243.03750970799592,0.01891008298844099,244.44074700000056,[np.float64(0.11666666666666667)],[np.float64(0.0763888888888889)],[1],[0],[0],[1.4131641249987297],['target'],Saloni 2,001,2025-09-29_18h11.11.332,visual search task 1,,2025.1.1,120.45501836320676,2025-09-29 18h19.10.762819 +0530,
178,0,178,[np.float64(-0.06944444444444445)],[np.float64(-0.15555555555555556)],[1],[0],[0],[0.9091702500008978],['target'],178,0,178,0,244.45613116699678,,5,244.44929745800619,244.45613116699678,244.45613116699678,0.008431457987171598,245.3585302499996,[np.float64(-0.06944444444444445)],[np.float64(-0.15555555555555556)],[1],[0],[0],[0.9091702500008978],['target'],Saloni 2,001,2025-09-29_18h11.11.332,visual search task 1,,2025.1.1,120.45501836320676,2025-09-29 18h19.10.762819 +0530,
179,0,179,[np.float64(0.09444444444444444)],[np.float64(-0.034722222222222224)],[1],[0],[0],[0.9232365000061691],['target'],179,0,179,0,245.37801450000552,,5,245.3695732500055,245.37801450000552,245.37801450000552,0.01091295899823308,246.29288187500788,[np.float64(0.09444444444444444)],[np.float64(-0.034722222222222224)],[1],[0],[0],[0.9232365000061691],['target'],Saloni 2,001,2025-09-29_18h11.11.332,visual search task 1,,2025.1.1,120.45501836320676,2025-09-29 18h19.10.762819 +0530,
180,0,180,[np.float64(0.28055555555555556)],[np.float64(0.47638888888888886)],[1],[0],[0],[2.7469903330056695],['target'],180,0,180,0,246.32148900000902,,10,246.31128599999647,246.32148900000902,246.32148900000902,0.018272208006237634,249.0583217920066,[np.float64(0.28055555555555556)],[np.float64(0.47638888888888886)],[1],[0],[0],[2.7469903330056695],['target'],Saloni 2,001,2025-09-29_18h11.11.332,visual search task 1,,2025.1.1,120.45501836320676,2025-09-29 18h19.10.762819 +0530,
181,0,181,[np.float64(-0.41805555555555557)],[np.float64(-0.44166666666666665)],[1],[0],[0],[1.5522228339978028],['target'],181,0,181,0,249.08274349999556,,10,249.07351862500946,249.08274349999556,249.08274349999556,0.01508237500092946,250.6257879170007,[np.float64(-0.41805555555555557)],[np.float64(-0.44166666666666665)],[1],[0],[0],[1.5522228339978028],['target'],Saloni 2,001,2025-09-29_18h11.11.332,visual search task 1,,2025.1.1,120.45501836320676,2025-09-29 18h19.10.762819 +0530,
182,0,182,[np.float64(-0.4111111111111111)],[np.float64(0.10277777777777777)],[1],[0],[0],[1.1913093750044936],['target'],182,0,182,0,250.6407776670094,,5,250.63402720799786,250.6407776670094,250.6407776670094,0.008125374995870516,251.82540320800035,[np.float64(-0.4111111111111111)],[np.float64(0.10277777777777777)],[1],[0],[0],[1.1913093750044936],['target'],Saloni 2,001,2025-09-29_18h11.11.332,visual search task 1,,2025.1.1,120.45501836320676,2025-09-29 18h19.10.762819 +0530,
183,0,183,[np.float64(0.02638888888888889)],[np.float64(0.05555555555555555)],[1],[0],[0],[0.9571223750099307],['target'],183,0,183,0,251.84341608300747,,5,251.8354010000039,251.84341608300747,251.84341608300747,0.009880124998744577,252.79259558299964,[np.float64(0.02638888888888889)],[np.float64(0.05555555555555555)],[1],[0],[0],[0.9571223750099307],['target'],Saloni 2,001,2025-09-29_18h11.11.332,visual search task 1,,2025.1.1,120.45501836320676,2025-09-29 18h19.10.762819 +0530,
184,0,184,[np.float64(-0.3055555555555556)],[np.float64(-0.1763888888888889)],[1],[0],[0],[1.0297242920059944],['target'],184,0,184,0,252.82242791699537,,10,252.81204279200756,252.82242791699537,252.82242791699537,0.019316459001856856,253.84181308299594,[np.float64(-0.3055555555555556)],[np.float64(-0.1763888888888889)],[1],[0],[0],[1.0297242920059944],['target'],Saloni 2,001,2025-09-29_18h11.11.332,visual search task 1,,2025.1.1,120.45501836320676,2025-09-29 18h19.10.762819 +0530,
185,0,185,[np.float64(-0.2902777777777778)],[np.float64(0.15)],[1],[0],[0],[1.4595544170006178],['target'],185,0,185,0,253.85763237500214,,5,253.8503972920007,253.85763237500214,253.85763237500214,0.008456042007310316,255.3100233330042,[np.float64(-0.2902777777777778)],[np.float64(0.15)],[1],[0],[0],[1.4595544170006178],['target'],Saloni 2,001,2025-09-29_18h11.11.332,visual search task 1,,2025.1.1,120.45501836320676,2025-09-29 18h19.10.762819 +0530,
186,0,186,[np.float64(0.35)],[np.float64(0.18333333333333332)],[1],[0],[0],[1.4880545000050915],['target'],186,0,186,0,255.32781645799696,,5,255.32041275000665,255.32781645799696,255.32781645799696,0.010257000001729466,256.8085264580004,[np.float64(0.35)],[np.float64(0.18333333333333332)],[1],[0],[0],[1.4880545000050915],['target'],Saloni 2,001,2025-09-29_18h11.11.332,visual search task 1,,2025.1.1,120.45501836320676,2025-09-29 18h19.10.762819 +0530,
187,0,187,[np.float64(-0.06666666666666667)],[np.float64(0.24166666666666667)],[1],[0],[0],[0.9456012919981731],['target'],187,0,187,0,256.83935774999554,,10,256.82905404199846,256.83935774999554,256.83935774999554,0.020393291997606866,257.774693542,[np.float64(-0.06666666666666667)],[np.float64(0.24166666666666667)],[1],[0],[0],[0.9456012919981731],['target'],Saloni 2,001,2025-09-29_18h11.11.332,visual search task 1,,2025.1.1,120.45501836320676,2025-09-29 18h19.10.762819 +0530,
188,0,188,[np.float64(-0.018055555555555554)],[np.float64(0.1388888888888889)],[1],[0],[0],[0.7258234580076532],['target'],188,0,188,0,257.78979708300903,,5,257.78297558300255,257.78979708300903,257.78979708300903,0.008167584004695527,258.5088692080026,[np.float64(-0.018055555555555554)],[np.float64(0.1388888888888889)],[1],[0],[0],[0.7258234580076532],['target'],Saloni 2,001,2025-09-29_18h11.11.332,visual search task 1,,2025.1.1,120.45501836320676,2025-09-29 18h19.10.762819 +0530,
189,0,189,[np.float64(0.15694444444444444)],[np.float64(-0.26666666666666666)],[1],[0],[0],[0.9218916660029208],['target'],189,0,189,0,258.5295732920058,,5,258.52035520800564,258.5295732920058,258.5295732920058,0.011356957998941652,259.44230070800404,[np.float64(0.15694444444444444)],[np.float64(-0.26666666666666666)],[1],[0],[0],[0.9218916660029208],['target'],Saloni 2,001,2025-09-29_18h11.11.332,visual search task 1,,2025.1.1,120.45501836320676,2025-09-29 18h19.10.762819 +0530,
190,0,190,[np.float64(-0.022222222222222223)],[np.float64(0.42916666666666664)],[1],[0],[0],[1.8149503750028089],['target'],190,0,190,0,259.47022383300646,,10,259.4601180000027,259.47022383300646,259.47022383300646,0.01769908300775569,261.27511904200946,[np.float64(-0.022222222222222223)],[np.float64(0.42916666666666664)],[1],[0],[0],[1.8149503750028089],['target'],Saloni 2,001,2025-09-29_18h11.11.332,visual search task 1,,2025.1.1,120.45501836320676,2025-09-29 18h19.10.762819 +0530,
191,0,191,[np.float64(-0.11527777777777778)],[np.float64(-0.18472222222222223)],[1],[0],[0],[1.0429083339986391],['target'],191,0,191,0,261.2906531250046,,5,261.2833505000017,261.2906531250046,261.2906531250046,0.008109332993626595,262.32632400000875,[np.float64(-0.11527777777777778)],[np.float64(-0.18472222222222223)],[1],[0],[0],[1.0429083339986391],['target'],Saloni 2,001,2025-09-29_18h11.11.332,visual search task 1,,2025.1.1,120.45501836320676,2025-09-29 18h19.10.762819 +0530,
192,0,192,[np.float64(-0.125)],[np.float64(-0.17083333333333334)],[1],[0],[0],[0.6560460000036983],['target'],192,0,192,0,262.3441910830006,,5,262.33674075000454,262.3441910830006,262.3441910830006,0.010288958001183346,262.9928521249967,[np.float64(-0.125)],[np.float64(-0.17083333333333334)],[1],[0],[0],[0.6560460000036983],['target'],Saloni 2,001,2025-09-29_18h11.11.332,visual search task 1,,2025.1.1,120.45501836320676,2025-09-29 18h19.10.762819 +0530,
193,0,193,[np.float64(0.43333333333333335)],[np.float64(-0.20694444444444443)],[1],[0],[0],[1.0541119999979855],['target'],193,0,193,0,263.01461712500895,,5,263.0047460420028,263.01461712500895,263.01461712500895,0.011746125004719943,264.05892254199716,[np.float64(0.43333333333333335)],[np.float64(-0.20694444444444443)],[1],[0],[0],[1.0541119999979855],['target'],Saloni 2,001,2025-09-29_18h11.11.332,visual search task 1,,2025.1.1,120.45501836320676,2025-09-29 18h19.10.762819 +0530,
194,0,194,[np.float64(-0.28194444444444444)],[np.float64(0.2152777777777778)],[1],[0],[0],[1.5233268329902785],['target'],194,0,194,0,264.0766449579969,,5,264.0692989579984,264.0766449579969,264.0766449579969,0.010244042001431808,265.59268312499626,[np.float64(-0.28194444444444444)],[np.float64(0.2152777777777778)],[1],[0],[0],[1.5233268329902785],['target'],Saloni 2,001,2025-09-29_18h11.11.332,visual search task 1,,2025.1.1,120.45501836320676,2025-09-29 18h19.10.762819 +0530,
195,0,195,[np.float64(0.49027777777777776)],[np.float64(0.3236111111111111)],[1],[0],[0],[1.4482885830075247],['target'],195,0,195,0,265.62130045800586,,10,265.61094704200514,265.62130045800586,265.62130045800586,0.018137958002625965,267.0592988330027,[np.float64(0.49027777777777776)],[np.float64(0.3236111111111111)],[1],[0],[0],[1.4482885830075247],['target'],Saloni 2,001,2025-09-29_18h11.11.332,visual search task 1,,2025.1.1,120.45501836320676,2025-09-29 18h19.10.762819 +0530,
196,0,196,[np.float64(0.3611111111111111)],[np.float64(0.043055555555555555)],[1],[0],[0],[1.07594304200029],['target'],196,0,196,0,267.07465904200217,,5,267.0676999580028,267.07465904200217,267.07465904200217,0.008268207995570265,268.1437065420032,[np.float64(0.3611111111111111)],[np.float64(0.043055555555555555)],[1],[0],[0],[1.07594304200029],['target'],Saloni 2,001,2025-09-29_18h11.11.332,visual search task 1,,2025.1.1,120.45501836320676,2025-09-29 18h19.10.762819 +0530,
197,0,197,[np.float64(0.13194444444444445)],[np.float64(0.09444444444444444)],[1],[0],[0],[0.8892429999978049],['target'],197,0,197,0,268.1615021250036,,5,268.15409120800905,268.1615021250036,268.1615021250036,0.010263541000313126,269.0433902079967,[np.float64(0.13194444444444445)],[np.float64(0.09444444444444444)],[1],[0],[0],[0.8892429999978049],['target'],Saloni 2,001,2025-09-29_18h11.11.332,visual search task 1,,2025.1.1,120.45501836320676,2025-09-29 18h19.10.762819 +0530,
198,0,198,[np.float64(0.15138888888888888)],[np.float64(0.19444444444444445)],[1],[0],[0],[0.8231559580017347],['target'],198,0,198,0,269.06088020799507,,5,269.05340087499644,269.06088020799507,269.06088020799507,0.00989720800134819,269.8766275000089,[np.float64(0.15138888888888888)],[np.float64(0.19444444444444445)],[1],[0],[0],[0.8231559580017347],['target'],Saloni 2,001,2025-09-29_18h11.11.332,visual search task 1,,2025.1.1,120.45501836320676,2025-09-29 18h19.10.762819 +0530,
199,0,199,[np.float64(0.3236111111111111)],[np.float64(-0.07222222222222222)],[1],[0],[0],[0.8882415830012178],['target'],199,0,199,0,269.8957490419998,,5,269.88749158300925,269.8957490419998,269.8957490419998,0.010735083997133188,270.77578937499493,[np.float64(0.3236111111111111)],[np.float64(-0.07222222222222222)],[1],[0],[0],[0.8882415830012178],['target'],Saloni 2,001,2025-09-29_18h11.11.332,visual search task 1,,2025.1.1,120.45501836320676,2025-09-29 18h19.10.762819 +0530,
