thisN,thisTrialN,thisRepN,mouse.x,mouse.y,mouse.leftButton,mouse.midButton,mouse.rightButton,mouse.time,mouse.clicked_name,trials.thisRepN,trials.thisTrialN,trials.thisN,trials.thisIndex,thisRow.t,notes,num_distr,trial.started,fixation.started,target.started,mouse.started,trial.stopped,trials.mouse.x,trials.mouse.y,trials.mouse.leftButton,trials.mouse.midButton,trials.mouse.rightButton,trials.mouse.time,trials.mouse.clicked_name,participant,session,date,expName,expVersion,psychopyVersion,frameRate,expStart,
0,0,0,[np.float64(0.05)],[np.float64(0.4166666666666667)],[1],[0],[0],[2.0866346250113565],['target'],0,0,0,0,0.04237566699157469,,10,0.029746041996986605,0.04237566699157469,0.04237566699157469,0.029760000004898757,2.116445459003444,[np.float64(0.05)],[np.float64(0.4166666666666667)],[1],[0],[0],[2.0866346250113565],['target'],saloni 3,001,2025-09-29_18h24.22.550,visual search task 1,,2025.1.1,119.73108397971737,2025-09-29 18h24.32.679422 +0530,
1,0,1,[np.float64(0.0)],[np.float64(-0.4027777777777778)],[1],[0],[0],[1.0566372080065776],['target'],1,0,1,0,2.132616374990903,,5,2.1253061669995077,2.132616374990903,2.132616374990903,0.008714459007023834,3.1820190839935094,[np.float64(0.0)],[np.float64(-0.4027777777777778)],[1],[0],[0],[1.0566372080065776],['target'],saloni 3,001,2025-09-29_18h24.22.550,visual search task 1,,2025.1.1,119.73108397971737,2025-09-29 18h24.32.679422 +0530,
2,0,2,[np.float64(-0.49583333333333335)],[np.float64(-0.10833333333333334)],[1],[0],[0],[0.9557517920038663],['target'],2,0,2,0,3.200913958993624,,5,3.1928895419987384,3.200913958993624,3.200913958993624,0.010738833007053472,4.148715666990029,[np.float64(-0.49583333333333335)],[np.float64(-0.10833333333333334)],[1],[0],[0],[0.9557517920038663],['target'],saloni 3,001,2025-09-29_18h24.22.550,visual search task 1,,2025.1.1,119.73108397971737,2025-09-29 18h24.32.679422 +0530,
3,0,3,[np.float64(-0.11944444444444445)],[np.float64(-0.21388888888888888)],[1],[0],[0],[1.9152327089977916],['target'],3,0,3,0,4.1775975420023315,,10,4.167594500002451,4.1775975420023315,4.1775975420023315,0.01874337499612011,6.082881291993544,[np.float64(-0.11944444444444445)],[np.float64(-0.21388888888888888)],[1],[0],[0],[1.9152327089977916],['target'],saloni 3,001,2025-09-29_18h24.22.550,visual search task 1,,2025.1.1,119.73108397971737,2025-09-29 18h24.32.679422 +0530,
4,0,4,[np.float64(0.09861111111111111)],[np.float64(0.46111111111111114)],[1],[0],[0],[1.6073985420080135],['target'],4,0,4,0,6.098456708990852,,5,6.091758916998515,6.098456708990852,6.098456708990852,0.008754790993407369,7.699235166990547,[np.float64(0.09861111111111111)],[np.float64(0.46111111111111114)],[1],[0],[0],[1.6073985420080135],['target'],saloni 3,001,2025-09-29_18h24.22.550,visual search task 1,,2025.1.1,119.73108397971737,2025-09-29 18h24.32.679422 +0530,
5,0,5,[np.float64(0.2513888888888889)],[np.float64(0.45)],[1],[0],[0],[1.4374462499981746],['target'],5,0,5,0,7.720455208997009,,5,7.711610999991535,7.720455208997009,7.720455208997009,0.012227917002746835,9.149128499993822,[np.float64(0.2513888888888889)],[np.float64(0.45)],[1],[0],[0],[1.4374462499981746],['target'],saloni 3,001,2025-09-29_18h24.22.550,visual search task 1,,2025.1.1,119.73108397971737,2025-09-29 18h24.32.679422 +0530,
6,0,6,[np.float64(0.013888888888888888)],[np.float64(0.4527777777777778)],[1],[0],[0],[1.421442584003671],['target'],6,0,6,0,9.16833458399924,,5,9.160263500001747,9.16833458399924,9.16833458399924,0.01100025000050664,10.581760083994595,[np.float64(0.013888888888888888)],[np.float64(0.4527777777777778)],[1],[0],[0],[1.421442584003671],['target'],saloni 3,001,2025-09-29_18h24.22.550,visual search task 1,,2025.1.1,119.73108397971737,2025-09-29 18h24.32.679422 +0530,
7,0,7,[np.float64(-0.18333333333333332)],[np.float64(-0.46111111111111114)],[1],[0],[0],[1.2720356670033652],['target'],7,0,7,0,10.600386833990342,,5,10.592872916997294,10.600386833990342,10.600386833990342,0.010947625007247552,11.864963833999354,[np.float64(-0.18333333333333332)],[np.float64(-0.46111111111111114)],[1],[0],[0],[1.2720356670033652],['target'],saloni 3,001,2025-09-29_18h24.22.550,visual search task 1,,2025.1.1,119.73108397971737,2025-09-29 18h24.32.679422 +0530,
8,0,8,[np.float64(0.02361111111111111)],[np.float64(0.4736111111111111)],[1],[0],[0],[1.4002082090009935],['target'],8,0,8,0,11.890888708992861,,10,11.881482374999905,11.890888708992861,11.890888708992861,0.016415959005826153,13.281731666997075,[np.float64(0.02361111111111111)],[np.float64(0.4736111111111111)],[1],[0],[0],[1.4002082090009935],['target'],saloni 3,001,2025-09-29_18h24.22.550,visual search task 1,,2025.1.1,119.73108397971737,2025-09-29 18h24.32.679422 +0530,
9,0,9,[np.float64(0.1986111111111111)],[np.float64(-0.03333333333333333)],[1],[0],[0],[1.0171511669905158],['target'],9,0,9,0,13.307776000001468,,10,13.298325875002774,13.307776000001468,13.307776000001468,0.01647154199599754,14.315526749996934,[np.float64(0.1986111111111111)],[np.float64(-0.03333333333333333)],[1],[0],[0],[1.0171511669905158],['target'],saloni 3,001,2025-09-29_18h24.22.550,visual search task 1,,2025.1.1,119.73108397971737,2025-09-29 18h24.32.679422 +0530,
10,0,10,[np.float64(-0.17222222222222222)],[np.float64(-0.03333333333333333)],[1],[0],[0],[0.8331682920106687],['target'],10,0,10,0,14.341336416997365,,10,14.33231316698948,14.341336416997365,14.341336416997365,0.01664204100961797,15.165535958993132,[np.float64(-0.17222222222222222)],[np.float64(-0.03333333333333333)],[1],[0],[0],[0.8331682920106687],['target'],saloni 3,001,2025-09-29_18h24.22.550,visual search task 1,,2025.1.1,119.73108397971737,2025-09-29 18h24.32.679422 +0530,
11,0,11,[np.float64(0.47638888888888886)],[np.float64(-0.3013888888888889)],[1],[0],[0],[2.591553500009468],['target'],11,0,11,0,15.181476625002688,,5,15.174601083999733,15.181476625002688,15.181476625002688,0.008942000000388362,17.766224833991146,[np.float64(0.47638888888888886)],[np.float64(-0.3013888888888889)],[1],[0],[0],[2.591553500009468],['target'],saloni 3,001,2025-09-29_18h24.22.550,visual search task 1,,2025.1.1,119.73108397971737,2025-09-29 18h24.32.679422 +0530,
12,0,12,[np.float64(0.2972222222222222)],[np.float64(0.31805555555555554)],[1],[0],[0],[1.8045028329943307],['target'],12,0,12,0,17.787499500002014,,5,17.77852645899111,17.787499500002014,17.787499500002014,0.01217424999049399,19.583101416996215,[np.float64(0.2972222222222222)],[np.float64(0.31805555555555554)],[1],[0],[0],[1.8045028329943307],['target'],saloni 3,001,2025-09-29_18h24.22.550,visual search task 1,,2025.1.1,119.73108397971737,2025-09-29 18h24.32.679422 +0530,
13,0,13,"[np.float64(0.2972222222222222), np.float64(-0.1125)]","[np.float64(0.31805555555555554), np.float64(0.4722222222222222)]","[1, 1]","[0, 0]","[0, 0]","[0.10690299999259878, 1.5577121659880504]","[None, 'target']",13,0,13,0,19.62071608399856,,10,19.608051333998446,19.62071608399856,19.62071608399856,0.024779041996225715,21.16581370899803,"[np.float64(0.2972222222222222), np.float64(-0.1125)]","[np.float64(0.31805555555555554), np.float64(0.4722222222222222)]","[1, 1]","[0, 0]","[0, 0]","[0.10690299999259878, 1.5577121659880504]","[None, 'target']",saloni 3,001,2025-09-29_18h24.22.550,visual search task 1,,2025.1.1,119.73108397971737,2025-09-29 18h24.32.679422 +0530,
14,0,14,[np.float64(0.08333333333333333)],[np.float64(-0.24305555555555555)],[1],[0],[0],[3.1128163329995004],['target'],14,0,14,0,21.19707075000042,,10,21.186355999991065,21.19707075000042,21.19707075000042,0.020365834003314376,24.29922404199897,[np.float64(0.08333333333333333)],[np.float64(-0.24305555555555555)],[1],[0],[0],[3.1128163329995004],['target'],saloni 3,001,2025-09-29_18h24.22.550,visual search task 1,,2025.1.1,119.73108397971737,2025-09-29 18h24.32.679422 +0530,
15,0,15,[np.float64(-0.08472222222222223)],[np.float64(-0.058333333333333334)],[1],[0],[0],[0.8078794589964673],['target'],15,0,15,0,24.315528374994756,,5,24.308290291999583,24.315528374994756,24.315528374994756,0.008944917004555464,25.116242167001474,[np.float64(-0.08472222222222223)],[np.float64(-0.058333333333333334)],[1],[0],[0],[0.8078794589964673],['target'],saloni 3,001,2025-09-29_18h24.22.550,visual search task 1,,2025.1.1,119.73108397971737,2025-09-29 18h24.32.679422 +0530,
16,0,16,[np.float64(-0.2152777777777778)],[np.float64(0.225)],[1],[0],[0],[1.2113189999945462],['target'],16,0,16,0,25.1480387920019,,10,25.137965749992873,25.1480387920019,25.1480387920019,0.021572582991211675,26.349332458994468,[np.float64(-0.2152777777777778)],[np.float64(0.225)],[1],[0],[0],[1.2113189999945462],['target'],saloni 3,001,2025-09-29_18h24.22.550,visual search task 1,,2025.1.1,119.73108397971737,2025-09-29 18h24.32.679422 +0530,
17,0,17,[np.float64(0.1125)],[np.float64(-0.05555555555555555)],[1],[0],[0],[1.2496851250034524],['target'],17,0,17,0,26.375832291989354,,10,26.366204874997493,26.375832291989354,26.375832291989354,0.016747250003390945,27.615939166993485,[np.float64(0.1125)],[np.float64(-0.05555555555555555)],[1],[0],[0],[1.2496851250034524],['target'],saloni 3,001,2025-09-29_18h24.22.550,visual search task 1,,2025.1.1,119.73108397971737,2025-09-29 18h24.32.679422 +0530,
18,0,18,[np.float64(-0.1638888888888889)],[np.float64(-0.24861111111111112)],[1],[0],[0],[2.417076374986209],['target'],18,0,18,0,27.64194708399009,,10,27.632711124999332,27.64194708399009,27.64194708399009,0.016648500008159317,30.04984241699276,[np.float64(-0.1638888888888889)],[np.float64(-0.24861111111111112)],[1],[0],[0],[2.417076374986209],['target'],saloni 3,001,2025-09-29_18h24.22.550,visual search task 1,,2025.1.1,119.73108397971737,2025-09-29 18h24.32.679422 +0530,
19,0,19,[np.float64(0.49166666666666664)],[np.float64(-0.3625)],[1],[0],[0],[1.36330004199408],['target'],19,0,19,0,30.0792961249972,,10,30.069047666998813,30.0792961249972,30.0792961249972,0.019049374997848645,31.432407959000557,[np.float64(0.49166666666666664)],[np.float64(-0.3625)],[1],[0],[0],[1.36330004199408],['target'],saloni 3,001,2025-09-29_18h24.22.550,visual search task 1,,2025.1.1,119.73108397971737,2025-09-29 18h24.32.679422 +0530,
20,0,20,[np.float64(-0.22916666666666666)],[np.float64(-0.006944444444444444)],[1],[0],[0],[0.9751547919877339],['target'],20,0,20,0,31.44992824998917,,5,31.44236762500077,31.44992824998917,31.44992824998917,0.00984374999825377,32.41760124999564,[np.float64(-0.22916666666666666)],[np.float64(-0.006944444444444444)],[1],[0],[0],[0.9751547919877339],['target'],saloni 3,001,2025-09-29_18h24.22.550,visual search task 1,,2025.1.1,119.73108397971737,2025-09-29 18h24.32.679422 +0530,
21,0,21,[np.float64(0.16527777777777777)],[np.float64(0.12361111111111112)],[1],[0],[0],[0.8395604160032235],['target'],21,0,21,0,32.45556462499371,,10,32.44328020900139,32.45556462499371,32.45556462499371,0.025506791993393563,33.28288529199199,[np.float64(0.16527777777777777)],[np.float64(0.12361111111111112)],[1],[0],[0],[0.8395604160032235],['target'],saloni 3,001,2025-09-29_18h24.22.550,visual search task 1,,2025.1.1,119.73108397971737,2025-09-29 18h24.32.679422 +0530,
22,0,22,[np.float64(0.17083333333333334)],[np.float64(0.24722222222222223)],[1],[0],[0],[1.1994608329987386],['target'],22,0,22,0,33.30937449999328,,10,33.29984875000082,33.30937449999328,33.30937449999328,0.01684370799921453,34.499351416990976,[np.float64(0.17083333333333334)],[np.float64(0.24722222222222223)],[1],[0],[0],[1.1994608329987386],['target'],saloni 3,001,2025-09-29_18h24.22.550,visual search task 1,,2025.1.1,119.73108397971737,2025-09-29 18h24.32.679422 +0530,
23,0,23,[np.float64(0.17777777777777778)],[np.float64(0.17222222222222222)],[1],[0],[0],[0.7409613330091815],['target'],23,0,23,0,34.515740542003186,,5,34.50846529199043,34.515740542003186,34.515740542003186,0.008990542002720758,35.24950954200176,[np.float64(0.17777777777777778)],[np.float64(0.17222222222222222)],[1],[0],[0],[0.7409613330091815],['target'],saloni 3,001,2025-09-29_18h24.22.550,visual search task 1,,2025.1.1,119.73108397971737,2025-09-29 18h24.32.679422 +0530,
24,0,24,[np.float64(-0.002777777777777778)],[np.float64(-0.12222222222222222)],[1],[0],[0],[1.6450251670030411],['target'],24,0,24,0,35.281299249996664,,10,35.2709912499995,35.281299249996664,35.281299249996664,0.021315874997526407,36.91606208399753,[np.float64(-0.002777777777777778)],[np.float64(-0.12222222222222222)],[1],[0],[0],[1.6450251670030411],['target'],saloni 3,001,2025-09-29_18h24.22.550,visual search task 1,,2025.1.1,119.73108397971737,2025-09-29 18h24.32.679422 +0530,
25,0,25,[np.float64(0.26805555555555555)],[np.float64(-0.3625)],[1],[0],[0],[1.9246351670008153],['target'],25,0,25,0,36.93262395900092,,5,36.925577292000526,36.93262395900092,36.93262395900092,0.009378165996167809,38.850286834000144,[np.float64(0.26805555555555555)],[np.float64(-0.3625)],[1],[0],[0],[1.9246351670008153],['target'],saloni 3,001,2025-09-29_18h24.22.550,visual search task 1,,2025.1.1,119.73108397971737,2025-09-29 18h24.32.679422 +0530,
26,0,26,[np.float64(0.2833333333333333)],[np.float64(0.1638888888888889)],[1],[0],[0],[1.0546407910005655],['target'],26,0,26,0,38.86960612499388,,5,38.861416333995294,38.86960612499388,38.86960612499388,0.011015041993232444,39.91612958400219,[np.float64(0.2833333333333333)],[np.float64(0.1638888888888889)],[1],[0],[0],[1.0546407910005655],['target'],saloni 3,001,2025-09-29_18h24.22.550,visual search task 1,,2025.1.1,119.73108397971737,2025-09-29 18h24.32.679422 +0530,
27,0,27,[np.float64(-0.09722222222222222)],[np.float64(0.225)],[1],[0],[0],[1.3808187919930788],['target'],27,0,27,0,39.94491433400253,,10,39.93495924999297,39.94491433400253,39.94491433400253,0.018696207989705727,41.31582170899492,[np.float64(-0.09722222222222222)],[np.float64(0.225)],[1],[0],[0],[1.3808187919930788],['target'],saloni 3,001,2025-09-29_18h24.22.550,visual search task 1,,2025.1.1,119.73108397971737,2025-09-29 18h24.32.679422 +0530,
28,0,28,[np.float64(0.23333333333333334)],[np.float64(0.39444444444444443)],[1],[0],[0],[2.1351283330004662],['target'],28,0,28,0,41.341171624997514,,10,41.33204699998896,41.341171624997514,41.341171624997514,0.016106458991998807,43.46721862499544,[np.float64(0.23333333333333334)],[np.float64(0.39444444444444443)],[1],[0],[0],[2.1351283330004662],['target'],saloni 3,001,2025-09-29_18h24.22.550,visual search task 1,,2025.1.1,119.73108397971737,2025-09-29 18h24.32.679422 +0530,
29,0,29,[np.float64(-0.4861111111111111)],[np.float64(-0.058333333333333334)],[1],[0],[0],[2.033810833003372],['target'],29,0,29,0,43.49213458399754,,10,43.48303787499026,43.49213458399754,43.49213458399754,0.015695750000304542,45.51690441700339,[np.float64(-0.4861111111111111)],[np.float64(-0.058333333333333334)],[1],[0],[0],[2.033810833003372],['target'],saloni 3,001,2025-09-29_18h24.22.550,visual search task 1,,2025.1.1,119.73108397971737,2025-09-29 18h24.32.679422 +0530,
30,0,30,[np.float64(-0.06805555555555555)],[np.float64(0.09722222222222222)],[1],[0],[0],[0.8067308330064407],['target'],30,0,30,0,45.53419004200259,,5,45.52689629199449,45.53419004200259,45.53419004200259,0.009847959008766338,46.333697875001235,[np.float64(-0.06805555555555555)],[np.float64(0.09722222222222222)],[1],[0],[0],[0.8067308330064407],['target'],saloni 3,001,2025-09-29_18h24.22.550,visual search task 1,,2025.1.1,119.73108397971737,2025-09-29 18h24.32.679422 +0530,
31,0,31,[np.float64(-0.2652777777777778)],[np.float64(0.018055555555555554)],[1],[0],[0],[0.8295407499972498],['target'],31,0,31,0,46.36319537500094,,10,46.353115334000904,46.36319537500094,46.36319537500094,0.019285666989162564,47.18269587500254,[np.float64(-0.2652777777777778)],[np.float64(0.018055555555555554)],[1],[0],[0],[0.8295407499972498],['target'],saloni 3,001,2025-09-29_18h24.22.550,visual search task 1,,2025.1.1,119.73108397971737,2025-09-29 18h24.32.679422 +0530,
32,0,32,[np.float64(-0.04861111111111111)],[np.float64(0.18888888888888888)],[1],[0],[0],[1.0432522909977706],['target'],32,0,32,0,47.19805841699417,,5,47.19129708399123,47.19805841699417,47.19805841699417,0.008479459007503465,48.234622374991886,[np.float64(-0.04861111111111111)],[np.float64(0.18888888888888888)],[1],[0],[0],[1.0432522909977706],['target'],saloni 3,001,2025-09-29_18h24.22.550,visual search task 1,,2025.1.1,119.73108397971737,2025-09-29 18h24.32.679422 +0530,
33,0,33,[np.float64(-0.14583333333333334)],[np.float64(0.43472222222222223)],[1],[0],[0],[1.896166999998968],['target'],33,0,33,0,48.26451566698961,,10,48.25453779200325,48.26451566698961,48.26451566698961,0.019783333991654217,50.150747958992724,[np.float64(-0.14583333333333334)],[np.float64(0.43472222222222223)],[1],[0],[0],[1.896166999998968],['target'],saloni 3,001,2025-09-29_18h24.22.550,visual search task 1,,2025.1.1,119.73108397971737,2025-09-29 18h24.32.679422 +0530,
34,0,34,[np.float64(0.2013888888888889)],[np.float64(-0.4875)],[1],[0],[0],[2.4331860830134246],['target'],34,0,34,0,50.175787667001714,,10,50.16678124999453,50.175787667001714,50.175787667001714,0.015911374997813255,52.6000226670003,[np.float64(0.2013888888888889)],[np.float64(-0.4875)],[1],[0],[0],[2.4331860830134246],['target'],saloni 3,001,2025-09-29_18h24.22.550,visual search task 1,,2025.1.1,119.73108397971737,2025-09-29 18h24.32.679422 +0530,
35,0,35,[np.float64(-0.19444444444444445)],[np.float64(-0.22916666666666666)],[1],[0],[0],[1.2158717919955961],['target'],35,0,35,0,52.62700591699104,,10,52.617273999989266,52.62700591699104,52.62700591699104,0.017130000007455237,53.83319320899318,[np.float64(-0.19444444444444445)],[np.float64(-0.22916666666666666)],[1],[0],[0],[1.2158717919955961],['target'],saloni 3,001,2025-09-29_18h24.22.550,visual search task 1,,2025.1.1,119.73108397971737,2025-09-29 18h24.32.679422 +0530,
36,0,36,[np.float64(-0.4041666666666667)],[np.float64(0.4638888888888889)],[1],[0],[0],[3.026954166998621],['target'],36,0,36,0,53.84869720900315,,5,53.84158320899587,53.84869720900315,53.84869720900315,0.008277290995465592,56.86861483399116,[np.float64(-0.4041666666666667)],[np.float64(0.4638888888888889)],[1],[0],[0],[3.026954166998621],['target'],saloni 3,001,2025-09-29_18h24.22.550,visual search task 1,,2025.1.1,119.73108397971737,2025-09-29 18h24.32.679422 +0530,
37,0,37,[np.float64(0.44166666666666665)],[np.float64(0.44027777777777777)],[1],[0],[0],[1.2867200830078218],['target'],37,0,37,0,56.89054420898901,,5,56.88104612499592,56.89054420898901,56.89054420898901,0.012272959007532336,58.16782224999042,[np.float64(0.44166666666666665)],[np.float64(0.44027777777777777)],[1],[0],[0],[1.2867200830078218],['target'],saloni 3,001,2025-09-29_18h24.22.550,visual search task 1,,2025.1.1,119.73108397971737,2025-09-29 18h24.32.679422 +0530,
38,0,38,[np.float64(-0.2111111111111111)],[np.float64(0.07916666666666666)],[1],[0],[0],[1.0881080419931095],['target'],38,0,38,0,58.18840608399478,,5,58.17938437499106,58.18840608399478,58.18840608399478,0.01143595899338834,59.26755933399545,[np.float64(-0.2111111111111111)],[np.float64(0.07916666666666666)],[1],[0],[0],[1.0881080419931095],['target'],saloni 3,001,2025-09-29_18h24.22.550,visual search task 1,,2025.1.1,119.73108397971737,2025-09-29 18h24.32.679422 +0530,
39,0,39,[np.float64(0.12638888888888888)],[np.float64(0.1527777777777778)],[1],[0],[0],[0.8390496249921853],['target'],39,0,39,0,59.285761666993494,,5,59.278370166997775,59.285761666993494,59.285761666993494,0.01067762500315439,60.117490374992485,[np.float64(0.12638888888888888)],[np.float64(0.1527777777777778)],[1],[0],[0],[0.8390496249921853],['target'],saloni 3,001,2025-09-29_18h24.22.550,visual search task 1,,2025.1.1,119.73108397971737,2025-09-29 18h24.32.679422 +0530,
40,0,40,[np.float64(-0.05416666666666667)],[np.float64(0.12222222222222222)],[1],[0],[0],[0.8637298329995247],['target'],40,0,40,0,60.14606662499136,,10,60.136394667002605,60.14606662499136,60.14606662499136,0.018768041001749225,61.000184374992386,[np.float64(-0.05416666666666667)],[np.float64(0.12222222222222222)],[1],[0],[0],[0.8637298329995247],['target'],saloni 3,001,2025-09-29_18h24.22.550,visual search task 1,,2025.1.1,119.73108397971737,2025-09-29 18h24.32.679422 +0530,
41,0,41,[np.float64(-0.37083333333333335)],[np.float64(0.06527777777777778)],[1],[0],[0],[0.9674215830018511],['target'],41,0,41,0,61.0260688339913,,10,61.0167365840025,61.0260688339913,61.0260688339913,0.016414082987466827,61.98422524999478,[np.float64(-0.37083333333333335)],[np.float64(0.06527777777777778)],[1],[0],[0],[0.9674215830018511],['target'],saloni 3,001,2025-09-29_18h24.22.550,visual search task 1,,2025.1.1,119.73108397971737,2025-09-29 18h24.32.679422 +0530,
42,0,42,[np.float64(-0.4125)],[np.float64(0.06527777777777778)],[1],[0],[0],[0.7327082499978133],['target'],42,0,42,0,62.009924625002895,,10,62.000635333999526,62.009924625002895,62.009924625002895,0.016285125006106682,62.73338474999764,[np.float64(-0.4125)],[np.float64(0.06527777777777778)],[1],[0],[0],[0.7327082499978133],['target'],saloni 3,001,2025-09-29_18h24.22.550,visual search task 1,,2025.1.1,119.73108397971737,2025-09-29 18h24.32.679422 +0530,
43,0,43,[np.float64(0.17777777777777778)],[np.float64(0.027777777777777776)],[1],[0],[0],[1.1253676670021378],['target'],43,0,43,0,62.7490662499913,,5,62.74229633399227,62.7490662499913,62.7490662499913,0.008787707993178628,63.8677412919933,[np.float64(0.17777777777777778)],[np.float64(0.027777777777777776)],[1],[0],[0],[1.1253676670021378],['target'],saloni 3,001,2025-09-29_18h24.22.550,visual search task 1,,2025.1.1,119.73108397971737,2025-09-29 18h24.32.679422 +0530,
44,0,44,[np.float64(-0.3277777777777778)],[np.float64(0.22083333333333333)],[1],[0],[0],[0.8726262499985751],['target'],44,0,44,0,63.88572791698971,,5,63.87840750000032,63.88572791698971,63.88572791698971,0.010534582994296215,64.75111212499905,[np.float64(-0.3277777777777778)],[np.float64(0.22083333333333333)],[1],[0],[0],[0.8726262499985751],['target'],saloni 3,001,2025-09-29_18h24.22.550,visual search task 1,,2025.1.1,119.73108397971737,2025-09-29 18h24.32.679422 +0530,
45,0,45,[np.float64(-0.25833333333333336)],[np.float64(0.059722222222222225)],[1],[0],[0],[1.1426070419984171],['target'],45,0,45,0,64.78674137499183,,10,64.77476591699815,64.78674137499183,64.78674137499183,0.02351470799476374,65.9174093749898,[np.float64(-0.25833333333333336)],[np.float64(0.059722222222222225)],[1],[0],[0],[1.1426070419984171],['target'],saloni 3,001,2025-09-29_18h24.22.550,visual search task 1,,2025.1.1,119.73108397971737,2025-09-29 18h24.32.679422 +0530,
46,0,46,[np.float64(-0.49444444444444446)],[np.float64(-0.034722222222222224)],[1],[0],[0],[0.7587051669979701],['target'],46,0,46,0,65.93243499999517,,5,65.92592979199253,65.93243499999517,65.93243499999517,0.008391625000513159,66.68470699999307,[np.float64(-0.49444444444444446)],[np.float64(-0.034722222222222224)],[1],[0],[0],[0.7587051669979701],['target'],saloni 3,001,2025-09-29_18h24.22.550,visual search task 1,,2025.1.1,119.73108397971737,2025-09-29 18h24.32.679422 +0530,
47,0,47,[np.float64(0.1736111111111111)],[np.float64(0.31527777777777777)],[1],[0],[0],[1.3969081249961164],['target'],47,0,47,0,66.71385870900122,,10,66.70356154200272,66.71385870900122,66.71385870900122,0.018719458996201865,68.10051474999636,[np.float64(0.1736111111111111)],[np.float64(0.31527777777777777)],[1],[0],[0],[1.3969081249961164],['target'],saloni 3,001,2025-09-29_18h24.22.550,visual search task 1,,2025.1.1,119.73108397971737,2025-09-29 18h24.32.679422 +0530,
48,0,48,[np.float64(0.44305555555555554)],[np.float64(-0.0763888888888889)],[1],[0],[0],[1.0909010840114206],['target'],48,0,48,0,68.11664212499454,,5,68.10959691699827,68.11664212499454,68.11664212499454,0.00896150000335183,69.20055708399741,[np.float64(0.44305555555555554)],[np.float64(-0.0763888888888889)],[1],[0],[0],[1.0909010840114206],['target'],saloni 3,001,2025-09-29_18h24.22.550,visual search task 1,,2025.1.1,119.73108397971737,2025-09-29 18h24.32.679422 +0530,
49,0,49,[np.float64(0.0375)],[np.float64(-0.05416666666666667)],[1],[0],[0],[0.7229154590022517],['target'],49,0,49,0,69.21900695899967,,5,69.21133208399988,69.21900695899967,69.21900695899967,0.010604833994875662,69.93431545900239,[np.float64(0.0375)],[np.float64(-0.05416666666666667)],[1],[0],[0],[0.7229154590022517],['target'],saloni 3,001,2025-09-29_18h24.22.550,visual search task 1,,2025.1.1,119.73108397971737,2025-09-29 18h24.32.679422 +0530,
50,0,50,[np.float64(0.0763888888888889)],[np.float64(-0.21805555555555556)],[1],[0],[0],[0.68946366700402],['target'],50,0,50,0,69.95441804199072,,5,69.9457185420033,69.95441804199072,69.95441804199072,0.011274250005953945,70.63525895899511,[np.float64(0.0763888888888889)],[np.float64(-0.21805555555555556)],[1],[0],[0],[0.68946366700402],['target'],saloni 3,001,2025-09-29_18h24.22.550,visual search task 1,,2025.1.1,119.73108397971737,2025-09-29 18h24.32.679422 +0530,
51,0,51,[np.float64(-0.29305555555555557)],[np.float64(-0.21805555555555556)],[1],[0],[0],[0.8063172919937642],['target'],51,0,51,0,70.67256924998946,,10,70.66024141699017,70.67256924998946,70.67256924998946,0.024818334000883624,71.46659858399653,[np.float64(-0.29305555555555557)],[np.float64(-0.21805555555555556)],[1],[0],[0],[0.8063172919937642],['target'],saloni 3,001,2025-09-29_18h24.22.550,visual search task 1,,2025.1.1,119.73108397971737,2025-09-29 18h24.32.679422 +0530,
52,0,52,[np.float64(0.08194444444444444)],[np.float64(0.12222222222222222)],[1],[0],[0],[0.8855562499957159],['target'],52,0,52,0,71.491490083994,,10,71.48225220899621,71.491490083994,71.491490083994,0.015543083005468361,72.36786429199856,[np.float64(0.08194444444444444)],[np.float64(0.12222222222222222)],[1],[0],[0],[0.8855562499957159],['target'],saloni 3,001,2025-09-29_18h24.22.550,visual search task 1,,2025.1.1,119.73108397971737,2025-09-29 18h24.32.679422 +0530,
53,0,53,[np.float64(0.30972222222222223)],[np.float64(-0.44583333333333336)],[1],[0],[0],[1.666253583985963],['target'],53,0,53,0,72.39364608399046,,10,72.38418908399763,72.39364608399046,72.39364608399046,0.01617195800645277,74.05049320899707,[np.float64(0.30972222222222223)],[np.float64(-0.44583333333333336)],[1],[0],[0],[1.666253583985963],['target'],saloni 3,001,2025-09-29_18h24.22.550,visual search task 1,,2025.1.1,119.73108397971737,2025-09-29 18h24.32.679422 +0530,
54,0,54,[np.float64(-0.06388888888888888)],[np.float64(0.1125)],[1],[0],[0],[1.0186417090008035],['target'],54,0,54,0,74.07425499999954,,10,74.06511762499576,74.07425499999954,74.07425499999954,0.014510542008792982,75.08380687500176,[np.float64(-0.06388888888888888)],[np.float64(0.1125)],[1],[0],[0],[1.0186417090008035],['target'],saloni 3,001,2025-09-29_18h24.22.550,visual search task 1,,2025.1.1,119.73108397971737,2025-09-29 18h24.32.679422 +0530,
55,0,55,[np.float64(0.2222222222222222)],[np.float64(-0.40694444444444444)],[1],[0],[0],[0.9092285829974571],['target'],55,0,55,0,75.09989791699627,,5,75.0926343750034,75.09989791699627,75.09989791699627,0.008694167001522146,76.00193208399287,[np.float64(0.2222222222222222)],[np.float64(-0.40694444444444444)],[1],[0],[0],[0.9092285829974571],['target'],saloni 3,001,2025-09-29_18h24.22.550,visual search task 1,,2025.1.1,119.73108397971737,2025-09-29 18h24.32.679422 +0530,
56,0,56,[np.float64(-0.06805555555555555)],[np.float64(0.2125)],[1],[0],[0],[1.0879899580031633],['target'],56,0,56,0,76.02229129199986,,5,76.01341145898914,76.02229129199986,76.02229129199986,0.01135016699845437,77.10147208400303,[np.float64(-0.06805555555555555)],[np.float64(0.2125)],[1],[0],[0],[1.0879899580031633],['target'],saloni 3,001,2025-09-29_18h24.22.550,visual search task 1,,2025.1.1,119.73108397971737,2025-09-29 18h24.32.679422 +0530,
57,0,57,[np.float64(0.11944444444444445)],[np.float64(0.36944444444444446)],[1],[0],[0],[0.9387354999926174],['target'],57,0,57,0,77.12010712499614,,5,77.11246112499794,77.12010712499614,77.12010712499614,0.010862458002520725,78.05125958399731,[np.float64(0.11944444444444445)],[np.float64(0.36944444444444446)],[1],[0],[0],[0.9387354999926174],['target'],saloni 3,001,2025-09-29_18h24.22.550,visual search task 1,,2025.1.1,119.73108397971737,2025-09-29 18h24.32.679422 +0530,
58,0,58,[np.float64(0.025)],[np.float64(0.28888888888888886)],[1],[0],[0],[1.0806626249977853],['target'],58,0,58,0,78.08067262500117,,10,78.070653458999,78.08067262500117,78.08067262500117,0.019264417001977563,79.15137083399168,[np.float64(0.025)],[np.float64(0.28888888888888886)],[1],[0],[0],[1.0806626249977853],['target'],saloni 3,001,2025-09-29_18h24.22.550,visual search task 1,,2025.1.1,119.73108397971737,2025-09-29 18h24.32.679422 +0530,
59,0,59,[np.float64(-0.002777777777777778)],[np.float64(-0.275)],[1],[0],[0],[1.9907611249946058],['target'],59,0,59,0,79.16801845899317,,5,79.160630458995,79.16801845899317,79.16801845899317,0.009130250007729046,81.15145112499886,[np.float64(-0.002777777777777778)],[np.float64(-0.275)],[1],[0],[0],[1.9907611249946058],['target'],saloni 3,001,2025-09-29_18h24.22.550,visual search task 1,,2025.1.1,119.73108397971737,2025-09-29 18h24.32.679422 +0530,
60,0,60,[np.float64(-0.05555555555555555)],[np.float64(-0.06388888888888888)],[1],[0],[0],[1.279312625003513],['target'],60,0,60,0,81.18230058399786,,10,81.17172254199977,81.18230058399786,81.18230058399786,0.020141750006587245,82.45108600000094,[np.float64(-0.05555555555555555)],[np.float64(-0.06388888888888888)],[1],[0],[0],[1.279312625003513],['target'],saloni 3,001,2025-09-29_18h24.22.550,visual search task 1,,2025.1.1,119.73108397971737,2025-09-29 18h24.32.679422 +0530,
61,0,61,[np.float64(-0.001388888888888889)],[np.float64(0.46805555555555556)],[1],[0],[0],[2.050255082998774],['target'],61,0,61,0,82.47615258400037,,10,82.46688504199847,82.47615258400037,82.47615258400037,0.01566449999518227,84.51718062500004,[np.float64(-0.001388888888888889)],[np.float64(0.46805555555555556)],[1],[0],[0],[2.050255082998774],['target'],saloni 3,001,2025-09-29_18h24.22.550,visual search task 1,,2025.1.1,119.73108397971737,2025-09-29 18h24.32.679422 +0530,
62,0,62,[np.float64(0.20416666666666666)],[np.float64(0.2513888888888889)],[1],[0],[0],[1.836091667006258],['target'],62,0,62,0,84.54046608399949,,10,84.5316909589892,84.54046608399949,84.54046608399949,0.014397541002836078,86.36782987500192,[np.float64(0.20416666666666666)],[np.float64(0.2513888888888889)],[1],[0],[0],[1.836091667006258],['target'],saloni 3,001,2025-09-29_18h24.22.550,visual search task 1,,2025.1.1,119.73108397971737,2025-09-29 18h24.32.679422 +0530,
63,0,63,[np.float64(-0.39166666666666666)],[np.float64(-0.41944444444444445)],[1],[0],[0],[2.6084522910095984],['target'],63,0,63,0,86.38324633399316,,5,86.37626858399017,86.38324633399316,86.38324633399316,0.008311916986713186,88.98479470900202,[np.float64(-0.39166666666666666)],[np.float64(-0.41944444444444445)],[1],[0],[0],[2.6084522910095984],['target'],saloni 3,001,2025-09-29_18h24.22.550,visual search task 1,,2025.1.1,119.73108397971737,2025-09-29 18h24.32.679422 +0530,
64,0,64,[np.float64(0.09722222222222222)],[np.float64(-0.28055555555555556)],[1],[0],[0],[0.9398315839935094],['target'],64,0,64,0,89.00294962499174,,5,88.99527558399132,89.00294962499174,89.00294962499174,0.010352583005442284,89.93517374999647,[np.float64(0.09722222222222222)],[np.float64(-0.28055555555555556)],[1],[0],[0],[0.9398315839935094],['target'],saloni 3,001,2025-09-29_18h24.22.550,visual search task 1,,2025.1.1,119.73108397971737,2025-09-29 18h24.32.679422 +0530,
65,0,65,[np.float64(-0.19583333333333333)],[np.float64(-0.20277777777777778)],[1],[0],[0],[1.0074310420022812],['target'],65,0,65,0,90.02077387500321,,10,90.01208674999361,90.02077387500321,90.02077387500321,0.07678137499897275,91.01957204200153,[np.float64(-0.19583333333333333)],[np.float64(-0.20277777777777778)],[1],[0],[0],[1.0074310420022812],['target'],saloni 3,001,2025-09-29_18h24.22.550,visual search task 1,,2025.1.1,119.73108397971737,2025-09-29 18h24.32.679422 +0530,
66,0,66,[np.float64(-0.0763888888888889)],[np.float64(0.001388888888888889)],[1],[0],[0],[0.9731733749940759],['target'],66,0,66,0,91.0355692919984,,5,91.02860495899222,91.0355692919984,91.0355692919984,0.008911333003197797,92.0018457499973,[np.float64(-0.0763888888888889)],[np.float64(0.001388888888888889)],[1],[0],[0],[0.9731733749940759],['target'],saloni 3,001,2025-09-29_18h24.22.550,visual search task 1,,2025.1.1,119.73108397971737,2025-09-29 18h24.32.679422 +0530,
67,0,67,[np.float64(-0.33611111111111114)],[np.float64(-0.22777777777777777)],[1],[0],[0],[0.9893532909918576],['target'],67,0,67,0,92.0195127499901,,5,92.01209858398943,92.0195127499901,92.0195127499901,0.010104874992975965,93.00152170899673,[np.float64(-0.33611111111111114)],[np.float64(-0.22777777777777777)],[1],[0],[0],[0.9893532909918576],['target'],saloni 3,001,2025-09-29_18h24.22.550,visual search task 1,,2025.1.1,119.73108397971737,2025-09-29 18h24.32.679422 +0530,
68,0,68,[np.float64(-0.02361111111111111)],[np.float64(-0.15555555555555556)],[1],[0],[0],[0.9232844169891905],['target'],68,0,68,0,93.0192198339937,,5,93.01166358399496,93.0192198339937,93.0192198339937,0.010011334001319483,93.93500716699054,[np.float64(-0.02361111111111111)],[np.float64(-0.15555555555555556)],[1],[0],[0],[0.9232844169891905],['target'],saloni 3,001,2025-09-29_18h24.22.550,visual search task 1,,2025.1.1,119.73108397971737,2025-09-29 18h24.32.679422 +0530,
69,0,69,[np.float64(0.17777777777777778)],[np.float64(0.3416666666666667)],[1],[0],[0],[1.4978975000121864],['target'],69,0,69,0,93.9635211249988,,10,93.9532912499999,93.9635211249988,93.9635211249988,0.01817154099990148,95.4512462499988,[np.float64(0.17777777777777778)],[np.float64(0.3416666666666667)],[1],[0],[0],[1.4978975000121864],['target'],saloni 3,001,2025-09-29_18h24.22.550,visual search task 1,,2025.1.1,119.73108397971737,2025-09-29 18h24.32.679422 +0530,
70,0,70,[np.float64(0.02638888888888889)],[np.float64(-0.35138888888888886)],[1],[0],[0],[1.1591274589882232],['target'],70,0,70,0,95.46613041700039,,5,95.45955545899051,95.46613041700039,95.46613041700039,0.008189833009964786,96.61875445899204,[np.float64(0.02638888888888889)],[np.float64(-0.35138888888888886)],[1],[0],[0],[1.1591274589882232],['target'],saloni 3,001,2025-09-29_18h24.22.550,visual search task 1,,2025.1.1,119.73108397971737,2025-09-29 18h24.32.679422 +0530,
71,0,71,[np.float64(0.375)],[np.float64(0.4083333333333333)],[1],[0],[0],[1.356027667003218],['target'],71,0,71,0,96.63814233399171,,5,96.62950562499464,96.63814233399171,96.63814233399171,0.010620458997436799,97.98560354199435,[np.float64(0.375)],[np.float64(0.4083333333333333)],[1],[0],[0],[1.356027667003218],['target'],saloni 3,001,2025-09-29_18h24.22.550,visual search task 1,,2025.1.1,119.73108397971737,2025-09-29 18h24.32.679422 +0530,
72,0,72,[np.float64(0.39305555555555555)],[np.float64(0.20694444444444443)],[1],[0],[0],[1.2137744580104481],['target'],72,0,72,0,98.01509445899865,,10,98.00465608399827,98.01509445899865,98.01509445899865,0.018921417009551078,99.21848404199409,[np.float64(0.39305555555555555)],[np.float64(0.20694444444444443)],[1],[0],[0],[1.2137744580104481],['target'],saloni 3,001,2025-09-29_18h24.22.550,visual search task 1,,2025.1.1,119.73108397971737,2025-09-29 18h24.32.679422 +0530,
73,0,73,[np.float64(-0.20277777777777778)],[np.float64(0.05694444444444444)],[1],[0],[0],[1.4488979590096278],['target'],73,0,73,0,99.24512629199307,,10,99.2357965419942,99.24512629199307,99.24512629199307,0.017170915991300717,100.68474204199447,[np.float64(-0.20277777777777778)],[np.float64(0.05694444444444444)],[1],[0],[0],[1.4488979590096278],['target'],saloni 3,001,2025-09-29_18h24.22.550,visual search task 1,,2025.1.1,119.73108397971737,2025-09-29 18h24.32.679422 +0530,
74,0,74,[np.float64(-0.09722222222222222)],[np.float64(0.3541666666666667)],[1],[0],[0],[1.4658170420007082],['target'],74,0,74,0,100.71254675000091,,10,100.70255708399054,100.71254675000091,100.71254675000091,0.01767979099531658,102.16842249999172,[np.float64(-0.09722222222222222)],[np.float64(0.3541666666666667)],[1],[0],[0],[1.4658170420007082],['target'],saloni 3,001,2025-09-29_18h24.22.550,visual search task 1,,2025.1.1,119.73108397971737,2025-09-29 18h24.32.679422 +0530,
75,0,75,[np.float64(-0.09166666666666666)],[np.float64(0.2013888888888889)],[1],[0],[0],[0.8006071249983506],['target'],75,0,75,0,102.19404495898925,,10,102.18482499998936,102.19404495898925,102.19404495898925,0.016275166999548674,102.9854867499962,[np.float64(-0.09166666666666666)],[np.float64(0.2013888888888889)],[1],[0],[0],[0.8006071249983506],['target'],saloni 3,001,2025-09-29_18h24.22.550,visual search task 1,,2025.1.1,119.73108397971737,2025-09-29 18h24.32.679422 +0530,
76,0,76,[np.float64(0.13472222222222222)],[np.float64(-0.23055555555555557)],[1],[0],[0],[1.0083259579987498],['target'],76,0,76,0,103.00173141699634,,5,102.99435587499465,103.00173141699634,103.00173141699634,0.008745458006160334,104.00276579199999,[np.float64(0.13472222222222222)],[np.float64(-0.23055555555555557)],[1],[0],[0],[1.0083259579987498],['target'],saloni 3,001,2025-09-29_18h24.22.550,visual search task 1,,2025.1.1,119.73108397971737,2025-09-29 18h24.32.679422 +0530,
77,0,77,[np.float64(0.17777777777777778)],[np.float64(-0.1388888888888889)],[1],[0],[0],[2.5937689170095837],['target'],77,0,77,0,104.03482145899034,,10,104.02426937498967,104.03482145899034,104.03482145899034,0.021357667006668635,106.61806749999232,[np.float64(0.17777777777777778)],[np.float64(-0.1388888888888889)],[1],[0],[0],[2.5937689170095837],['target'],saloni 3,001,2025-09-29_18h24.22.550,visual search task 1,,2025.1.1,119.73108397971737,2025-09-29 18h24.32.679422 +0530,
78,0,78,[np.float64(-0.25277777777777777)],[np.float64(-0.3194444444444444)],[1],[0],[0],[1.0423024170013377],['target'],78,0,78,0,106.63294091699936,,5,106.62630404200172,106.63294091699936,106.63294091699936,0.008122208004351705,107.66866987499816,[np.float64(-0.25277777777777777)],[np.float64(-0.3194444444444444)],[1],[0],[0],[1.0423024170013377],['target'],saloni 3,001,2025-09-29_18h24.22.550,visual search task 1,,2025.1.1,119.73108397971737,2025-09-29 18h24.32.679422 +0530,
79,0,79,[np.float64(-0.06805555555555555)],[np.float64(-0.42777777777777776)],[1],[0],[0],[0.8555313329998171],['target'],79,0,79,0,107.6870239169948,,5,107.67934804200195,107.6870239169948,107.6870239169948,0.01054637499328237,108.53493179198995,[np.float64(-0.06805555555555555)],[np.float64(-0.42777777777777776)],[1],[0],[0],[0.8555313329998171],['target'],saloni 3,001,2025-09-29_18h24.22.550,visual search task 1,,2025.1.1,119.73108397971737,2025-09-29 18h24.32.679422 +0530,
80,0,80,[np.float64(0.2763888888888889)],[np.float64(-0.42777777777777776)],[1],[0],[0],[0.9564857499935897],['target'],80,0,80,0,108.5555415419949,,5,108.54621145899,108.5555415419949,108.5555415419949,0.01115574999130331,109.50276941699849,[np.float64(0.2763888888888889)],[np.float64(-0.42777777777777776)],[1],[0],[0],[0.9564857499935897],['target'],saloni 3,001,2025-09-29_18h24.22.550,visual search task 1,,2025.1.1,119.73108397971737,2025-09-29 18h24.32.679422 +0530,
81,0,81,"[np.float64(0.10555555555555556), np.float64(0.08333333333333333)]","[np.float64(-0.10555555555555556), np.float64(-0.1111111111111111)]","[1, 1]","[0, 0]","[0, 0]","[1.0127905840054154, 1.496692083994276]","[None, 'target']",81,0,81,0,109.5325251250033,,10,109.52238808399125,109.5325251250033,109.5325251250033,0.019461583011434413,111.0191364170023,"[np.float64(0.10555555555555556), np.float64(0.08333333333333333)]","[np.float64(-0.10555555555555556), np.float64(-0.1111111111111111)]","[1, 1]","[0, 0]","[0, 0]","[1.0127905840054154, 1.496692083994276]","[None, 'target']",saloni 3,001,2025-09-29_18h24.22.550,visual search task 1,,2025.1.1,119.73108397971737,2025-09-29 18h24.32.679422 +0530,
82,0,82,[np.float64(0.33194444444444443)],[np.float64(-0.44166666666666665)],[1],[0],[0],[1.373709499996039],['target'],82,0,82,0,111.03613774999394,,5,111.02886208400014,111.03613774999394,111.03613774999394,0.009545499997329898,112.40264662499249,[np.float64(0.33194444444444443)],[np.float64(-0.44166666666666665)],[1],[0],[0],[1.373709499996039],['target'],saloni 3,001,2025-09-29_18h24.22.550,visual search task 1,,2025.1.1,119.73108397971737,2025-09-29 18h24.32.679422 +0530,
83,0,83,[np.float64(0.05416666666666667)],[np.float64(-0.08055555555555556)],[1],[0],[0],[0.9799315420095809],['target'],83,0,83,0,112.43229141698976,,10,112.42182412499096,112.43229141698976,112.43229141698976,0.01904579100664705,113.40180229199177,[np.float64(0.05416666666666667)],[np.float64(-0.08055555555555556)],[1],[0],[0],[0.9799315420095809],['target'],saloni 3,001,2025-09-29_18h24.22.550,visual search task 1,,2025.1.1,119.73108397971737,2025-09-29 18h24.32.679422 +0530,
84,0,84,[np.float64(0.3416666666666667)],[np.float64(-0.46805555555555556)],[1],[0],[0],[1.3532364580023568],['target'],84,0,84,0,113.42570637499739,,10,113.41656541699194,113.42570637499739,113.42570637499739,0.014651208010036498,114.76985687499109,[np.float64(0.3416666666666667)],[np.float64(-0.46805555555555556)],[1],[0],[0],[1.3532364580023568],['target'],saloni 3,001,2025-09-29_18h24.22.550,visual search task 1,,2025.1.1,119.73108397971737,2025-09-29 18h24.32.679422 +0530,
85,0,85,[np.float64(-0.3)],[np.float64(0.37083333333333335)],[1],[0],[0],[1.7245351660094457],['target'],85,0,85,0,114.78568324999651,,5,114.77854054199997,114.78568324999651,114.78568324999651,0.00855491698894184,116.50314929199521,[np.float64(-0.3)],[np.float64(0.37083333333333335)],[1],[0],[0],[1.7245351660094457],['target'],saloni 3,001,2025-09-29_18h24.22.550,visual search task 1,,2025.1.1,119.73108397971737,2025-09-29 18h24.32.679422 +0530,
86,0,86,[np.float64(0.3333333333333333)],[np.float64(0.49027777777777776)],[1],[0],[0],[1.7221904580073897],['target'],86,0,86,0,116.52238141700218,,5,116.51414004199614,116.52238141700218,116.52238141700218,0.010867208999115974,118.2363940840005,[np.float64(0.3333333333333333)],[np.float64(0.49027777777777776)],[1],[0],[0],[1.7221904580073897],['target'],saloni 3,001,2025-09-29_18h24.22.550,visual search task 1,,2025.1.1,119.73108397971737,2025-09-29 18h24.32.679422 +0530,
87,0,87,[np.float64(-0.31666666666666665)],[np.float64(-0.08333333333333333)],[1],[0],[0],[1.6046420829952694],['target'],87,0,87,0,118.25493620899215,,5,118.24708441700204,118.25493620899215,118.25493620899215,0.010558500012848526,119.85177337499044,[np.float64(-0.31666666666666665)],[np.float64(-0.08333333333333333)],[1],[0],[0],[1.6046420829952694],['target'],saloni 3,001,2025-09-29_18h24.22.550,visual search task 1,,2025.1.1,119.73108397971737,2025-09-29 18h24.32.679422 +0530,
88,0,88,[np.float64(0.23333333333333334)],[np.float64(-0.3861111111111111)],[1],[0],[0],[1.3575341249961639],['target'],88,0,88,0,119.86943137500202,,5,119.86195129199768,119.86943137500202,119.86943137500202,0.010068042000057176,121.21955324998999,[np.float64(0.23333333333333334)],[np.float64(-0.3861111111111111)],[1],[0],[0],[1.3575341249961639],['target'],saloni 3,001,2025-09-29_18h24.22.550,visual search task 1,,2025.1.1,119.73108397971737,2025-09-29 18h24.32.679422 +0530,
89,0,89,[np.float64(-0.2861111111111111)],[np.float64(0.4097222222222222)],[1],[0],[0],[1.4233217500004685],['target'],89,0,89,0,121.23881724999228,,5,121.23038895899663,121.23881724999228,121.23881724999228,0.010708292000344954,122.6537666249933,[np.float64(-0.2861111111111111)],[np.float64(0.4097222222222222)],[1],[0],[0],[1.4233217500004685],['target'],saloni 3,001,2025-09-29_18h24.22.550,visual search task 1,,2025.1.1,119.73108397971737,2025-09-29 18h24.32.679422 +0530,
90,0,90,[np.float64(0.23333333333333334)],[np.float64(0.46805555555555556)],[1],[0],[0],[1.2882987089978997],['target'],90,0,90,0,122.67422391699802,,5,122.66530141700059,122.67422391699802,122.67422391699802,0.011407791011151858,123.95365624999977,[np.float64(0.23333333333333334)],[np.float64(0.46805555555555556)],[1],[0],[0],[1.2882987089978997],['target'],saloni 3,001,2025-09-29_18h24.22.550,visual search task 1,,2025.1.1,119.73108397971737,2025-09-29 18h24.32.679422 +0530,
91,0,91,[np.float64(0.48055555555555557)],[np.float64(-0.08333333333333333)],[1],[0],[0],[1.3622176659991965],['target'],91,0,91,0,123.98310633399524,,10,123.97295662500255,123.98310633399524,123.98310633399524,0.01917166700877715,125.33522083399293,[np.float64(0.48055555555555557)],[np.float64(-0.08333333333333333)],[1],[0],[0],[1.3622176659991965],['target'],saloni 3,001,2025-09-29_18h24.22.550,visual search task 1,,2025.1.1,119.73108397971737,2025-09-29 18h24.32.679422 +0530,
92,0,92,[np.float64(0.3013888888888889)],[np.float64(-0.3236111111111111)],[1],[0],[0],[1.042696916993009],['target'],92,0,92,0,125.35078574999352,,5,125.34376695899118,125.35078574999352,125.35078574999352,0.008425333013292402,126.3865297500015,[np.float64(0.3013888888888889)],[np.float64(-0.3236111111111111)],[1],[0],[0],[1.042696916993009],['target'],saloni 3,001,2025-09-29_18h24.22.550,visual search task 1,,2025.1.1,119.73108397971737,2025-09-29 18h24.32.679422 +0530,
93,0,93,[np.float64(0.2111111111111111)],[np.float64(0.22916666666666666)],[1],[0],[0],[0.9949711249937536],['target'],93,0,93,0,126.41796166700078,,10,126.40730279199488,126.41796166700078,126.41796166700078,0.020641625000280328,127.40232070899219,[np.float64(0.2111111111111111)],[np.float64(0.22916666666666666)],[1],[0],[0],[0.9949711249937536],['target'],saloni 3,001,2025-09-29_18h24.22.550,visual search task 1,,2025.1.1,119.73108397971737,2025-09-29 18h24.32.679422 +0530,
94,0,94,[np.float64(0.2111111111111111)],[np.float64(-0.39444444444444443)],[1],[0],[0],[1.0593873750040075],['target'],94,0,94,0,127.41769962500257,,5,127.41053524999006,127.41769962500257,127.41769962500257,0.008103333006147295,128.4700009169901,[np.float64(0.2111111111111111)],[np.float64(-0.39444444444444443)],[1],[0],[0],[1.0593873750040075],['target'],saloni 3,001,2025-09-29_18h24.22.550,visual search task 1,,2025.1.1,119.73108397971737,2025-09-29 18h24.32.679422 +0530,
95,0,95,[np.float64(-0.08888888888888889)],[np.float64(-0.4486111111111111)],[1],[0],[0],[2.1218667499924777],['target'],95,0,95,0,128.4901010839967,,5,128.48141741700238,128.4901010839967,128.4901010839967,0.011291125003481284,130.60335387499072,[np.float64(-0.08888888888888889)],[np.float64(-0.4486111111111111)],[1],[0],[0],[2.1218667499924777],['target'],saloni 3,001,2025-09-29_18h24.22.550,visual search task 1,,2025.1.1,119.73108397971737,2025-09-29 18h24.32.679422 +0530,
96,0,96,[np.float64(-0.3402777777777778)],[np.float64(-0.22083333333333333)],[1],[0],[0],[1.3385157919983612],['target'],96,0,96,0,130.6223714999942,,5,130.6139558750001,130.6223714999942,130.6223714999942,0.010476209004991688,131.9525208749983,[np.float64(-0.3402777777777778)],[np.float64(-0.22083333333333333)],[1],[0],[0],[1.3385157919983612],['target'],saloni 3,001,2025-09-29_18h24.22.550,visual search task 1,,2025.1.1,119.73108397971737,2025-09-29 18h24.32.679422 +0530,
97,0,97,[np.float64(0.18194444444444444)],[np.float64(0.35694444444444445)],[1],[0],[0],[1.8239538749912754],['target'],97,0,97,0,131.97037766699214,,5,131.96280662500067,131.97037766699214,131.97037766699214,0.010173582995776087,133.7868350839999,[np.float64(0.18194444444444444)],[np.float64(0.35694444444444445)],[1],[0],[0],[1.8239538749912754],['target'],saloni 3,001,2025-09-29_18h24.22.550,visual search task 1,,2025.1.1,119.73108397971737,2025-09-29 18h24.32.679422 +0530,
98,0,98,[np.float64(-0.13194444444444445)],[np.float64(-0.22777777777777777)],[1],[0],[0],[1.038641874998575],['target'],98,0,98,0,133.8061399589933,,5,133.79778808398987,133.8061399589933,133.8061399589933,0.010830250001163222,134.83649266698922,[np.float64(-0.13194444444444445)],[np.float64(-0.22777777777777777)],[1],[0],[0],[1.038641874998575],['target'],saloni 3,001,2025-09-29_18h24.22.550,visual search task 1,,2025.1.1,119.73108397971737,2025-09-29 18h24.32.679422 +0530,
99,0,99,[np.float64(-0.23472222222222222)],[np.float64(0.4444444444444444)],[1],[0],[0],[1.3141814580012579],['target'],99,0,99,0,134.8651974999957,,10,134.8549116669892,134.8651974999957,134.8651974999957,0.018298957991646603,136.16913991699403,[np.float64(-0.23472222222222222)],[np.float64(0.4444444444444444)],[1],[0],[0],[1.3141814580012579],['target'],saloni 3,001,2025-09-29_18h24.22.550,visual search task 1,,2025.1.1,119.73108397971737,2025-09-29 18h24.32.679422 +0530,
100,0,100,[np.float64(-0.059722222222222225)],[np.float64(0.0763888888888889)],[1],[0],[0],[1.2096970830025384],['target'],100,0,100,0,136.18438333399536,,5,136.1772362920019,136.18438333399536,136.18438333399536,0.007982916009495966,137.38699887499388,[np.float64(-0.059722222222222225)],[np.float64(0.0763888888888889)],[1],[0],[0],[1.2096970830025384],['target'],saloni 3,001,2025-09-29_18h24.22.550,visual search task 1,,2025.1.1,119.73108397971737,2025-09-29 18h24.32.679422 +0530,
101,0,101,[np.float64(-0.11388888888888889)],[np.float64(-0.044444444444444446)],[1],[0],[0],[1.3124274159927154],['target'],101,0,101,0,137.4176207089913,,10,137.40695695899194,137.4176207089913,137.4176207089913,0.019797667002421804,138.7194345839962,[np.float64(-0.11388888888888889)],[np.float64(-0.044444444444444446)],[1],[0],[0],[1.3124274159927154],['target'],saloni 3,001,2025-09-29_18h24.22.550,visual search task 1,,2025.1.1,119.73108397971737,2025-09-29 18h24.32.679422 +0530,
102,0,102,[np.float64(-0.29305555555555557)],[np.float64(-0.4125)],[1],[0],[0],[1.8008593330014264],['target'],102,0,102,0,138.7452709999925,,10,138.73571162499138,138.7452709999925,138.7452709999925,0.01615141700312961,140.53661741699034,[np.float64(-0.29305555555555557)],[np.float64(-0.4125)],[1],[0],[0],[1.8008593330014264],['target'],saloni 3,001,2025-09-29_18h24.22.550,visual search task 1,,2025.1.1,119.73108397971737,2025-09-29 18h24.32.679422 +0530,
103,0,103,[np.float64(0.06111111111111111)],[np.float64(-0.4111111111111111)],[1],[0],[0],[0.9813319999957457],['target'],103,0,103,0,140.56494374999602,,10,140.55491845899087,140.56494374999602,140.56494374999602,0.018160624997108243,141.53629654199176,[np.float64(0.06111111111111111)],[np.float64(-0.4111111111111111)],[1],[0],[0],[0.9813319999957457],['target'],saloni 3,001,2025-09-29_18h24.22.550,visual search task 1,,2025.1.1,119.73108397971737,2025-09-29 18h24.32.679422 +0530,
104,0,104,[np.float64(0.16111111111111112)],[np.float64(-0.35833333333333334)],[1],[0],[0],[1.335889291993226],['target'],104,0,104,0,141.55942220900033,,10,141.55056462499488,141.55942220900033,141.55942220900033,0.014159875005134381,142.88650270899234,[np.float64(0.16111111111111112)],[np.float64(-0.35833333333333334)],[1],[0],[0],[1.335889291993226],['target'],saloni 3,001,2025-09-29_18h24.22.550,visual search task 1,,2025.1.1,119.73108397971737,2025-09-29 18h24.32.679422 +0530,
105,0,105,[np.float64(0.029166666666666667)],[np.float64(-0.4597222222222222)],[1],[0],[0],[1.0529100420098985],['target'],105,0,105,0,142.9106118339987,,10,142.90107962499314,142.9106118339987,142.9106118339987,0.014466207998339087,143.95404275000328,[np.float64(0.029166666666666667)],[np.float64(-0.4597222222222222)],[1],[0],[0],[1.0529100420098985],['target'],saloni 3,001,2025-09-29_18h24.22.550,visual search task 1,,2025.1.1,119.73108397971737,2025-09-29 18h24.32.679422 +0530,
106,0,106,[np.float64(-0.15833333333333333)],[np.float64(0.43333333333333335)],[1],[0],[0],[2.0904708329908317],['target'],106,0,106,0,143.97053062499617,,5,143.96297120899544,143.97053062499617,143.97053062499617,0.00880450000113342,146.05350675000227,[np.float64(-0.15833333333333333)],[np.float64(0.43333333333333335)],[1],[0],[0],[2.0904708329908317],['target'],saloni 3,001,2025-09-29_18h24.22.550,visual search task 1,,2025.1.1,119.73108397971737,2025-09-29 18h24.32.679422 +0530,
107,0,107,"[np.float64(-0.3763888888888889), np.float64(-0.4263888888888889)]","[np.float64(-0.029166666666666667), np.float64(-0.013888888888888888)]","[1, 1]","[0, 0]","[0, 0]","[1.0403772909921827, 1.573890332991141]","[None, 'target']",107,0,107,0,146.07120241699158,,5,146.0635521249933,146.07120241699158,146.07120241699158,0.009932415996445343,147.63751654200314,"[np.float64(-0.3763888888888889), np.float64(-0.4263888888888889)]","[np.float64(-0.029166666666666667), np.float64(-0.013888888888888888)]","[1, 1]","[0, 0]","[0, 0]","[1.0403772909921827, 1.573890332991141]","[None, 'target']",saloni 3,001,2025-09-29_18h24.22.550,visual search task 1,,2025.1.1,119.73108397971737,2025-09-29 18h24.32.679422 +0530,
108,0,108,[np.float64(-0.4986111111111111)],[np.float64(0.4736111111111111)],[1],[0],[0],[1.6048051659890916],['target'],108,0,108,0,147.65855100000044,,5,147.6491611669917,147.65855100000044,147.65855100000044,0.01149279200762976,149.254024208989,[np.float64(-0.4986111111111111)],[np.float64(0.4736111111111111)],[1],[0],[0],[1.6048051659890916],['target'],saloni 3,001,2025-09-29_18h24.22.550,visual search task 1,,2025.1.1,119.73108397971737,2025-09-29 18h24.32.679422 +0530,
109,0,109,[np.float64(0.44166666666666665)],[np.float64(-0.2013888888888889)],[1],[0],[0],[2.063724125007866],['target'],109,0,109,0,149.28306008399522,,10,149.273038542,149.28306008399522,149.28306008399522,0.018896958004916087,151.33681374999287,[np.float64(0.44166666666666665)],[np.float64(-0.2013888888888889)],[1],[0],[0],[2.063724125007866],['target'],saloni 3,001,2025-09-29_18h24.22.550,visual search task 1,,2025.1.1,119.73108397971737,2025-09-29 18h24.32.679422 +0530,
110,0,110,"[np.float64(0.2513888888888889), np.float64(0.1986111111111111)]","[np.float64(-0.225), np.float64(-0.20277777777777778)]","[1, 1]","[0, 0]","[0, 0]","[0.8926551250042394, 1.3751817919983296]","[None, 'target']",110,0,110,0,151.3520429170021,,5,151.3451542089897,151.3520429170021,151.3520429170021,0.008220667004934512,152.72040954200202,"[np.float64(0.2513888888888889), np.float64(0.1986111111111111)]","[np.float64(-0.225), np.float64(-0.20277777777777778)]","[1, 1]","[0, 0]","[0, 0]","[0.8926551250042394, 1.3751817919983296]","[None, 'target']",saloni 3,001,2025-09-29_18h24.22.550,visual search task 1,,2025.1.1,119.73108397971737,2025-09-29 18h24.32.679422 +0530,
111,0,111,[np.float64(-0.49166666666666664)],[np.float64(0.04722222222222222)],[1],[0],[0],[0.9445591670082649],['target'],111,0,111,0,152.7522922920034,,10,152.74184241700277,152.7522922920034,152.7522922920034,0.021257208994938992,153.68643995899765,[np.float64(-0.49166666666666664)],[np.float64(0.04722222222222222)],[1],[0],[0],[0.9445591670082649],['target'],saloni 3,001,2025-09-29_18h24.22.550,visual search task 1,,2025.1.1,119.73108397971737,2025-09-29 18h24.32.679422 +0530,
112,0,112,[np.float64(-0.2708333333333333)],[np.float64(-0.2263888888888889)],[1],[0],[0],[1.5590814159950241],['target'],112,0,112,0,153.70213274999696,,5,153.69510674999037,153.70213274999696,153.70213274999696,0.0085491249919869,155.25426449999213,[np.float64(-0.2708333333333333)],[np.float64(-0.2263888888888889)],[1],[0],[0],[1.5590814159950241],['target'],saloni 3,001,2025-09-29_18h24.22.550,visual search task 1,,2025.1.1,119.73108397971737,2025-09-29 18h24.32.679422 +0530,
113,0,113,[np.float64(0.15)],[np.float64(0.2902777777777778)],[1],[0],[0],[1.7469516660057707],['target'],113,0,113,0,155.2835514999897,,10,155.27329224999994,155.2835514999897,155.2835514999897,0.01889454100455623,157.02029270899948,[np.float64(0.15)],[np.float64(0.2902777777777778)],[1],[0],[0],[1.7469516660057707],['target'],saloni 3,001,2025-09-29_18h24.22.550,visual search task 1,,2025.1.1,119.73108397971737,2025-09-29 18h24.32.679422 +0530,
114,0,114,[np.float64(-0.2625)],[np.float64(-0.06527777777777778)],[1],[0],[0],[1.0367056660033995],['target'],114,0,114,0,157.04438045900315,,10,157.03480291699816,157.04438045900315,157.04438045900315,0.014400083004147746,158.0715607500024,[np.float64(-0.2625)],[np.float64(-0.06527777777777778)],[1],[0],[0],[1.0367056660033995],['target'],saloni 3,001,2025-09-29_18h24.22.550,visual search task 1,,2025.1.1,119.73108397971737,2025-09-29 18h24.32.679422 +0530,
115,0,115,[np.float64(-0.0125)],[np.float64(-0.3416666666666667)],[1],[0],[0],[1.4843452920031268],['target'],115,0,115,0,158.09507733400096,,10,158.08617733400024,158.09507733400096,158.09507733400096,0.014506375009659678,159.57057599999825,[np.float64(-0.0125)],[np.float64(-0.3416666666666667)],[1],[0],[0],[1.4843452920031268],['target'],saloni 3,001,2025-09-29_18h24.22.550,visual search task 1,,2025.1.1,119.73108397971737,2025-09-29 18h24.32.679422 +0530,
116,0,116,[np.float64(0.48194444444444445)],[np.float64(0.015277777777777777)],[1],[0],[0],[1.0838462909887312],['target'],116,0,116,0,159.59582491699257,,10,159.58653554199554,159.59582491699257,159.59582491699257,0.0158392090088455,160.67042837500048,[np.float64(0.48194444444444445)],[np.float64(0.015277777777777777)],[1],[0],[0],[1.0838462909887312],['target'],saloni 3,001,2025-09-29_18h24.22.550,visual search task 1,,2025.1.1,119.73108397971737,2025-09-29 18h24.32.679422 +0530,
117,0,117,[np.float64(0.19305555555555556)],[np.float64(0.325)],[1],[0],[0],[0.8764424999972107],['target'],117,0,117,0,160.6861038749921,,5,160.67845779198979,160.6861038749921,160.6861038749921,0.007923499986645766,161.55495870899176,[np.float64(0.19305555555555556)],[np.float64(0.325)],[1],[0],[0],[0.8764424999972107],['target'],saloni 3,001,2025-09-29_18h24.22.550,visual search task 1,,2025.1.1,119.73108397971737,2025-09-29 18h24.32.679422 +0530,
118,0,118,[np.float64(0.25277777777777777)],[np.float64(0.1986111111111111)],[1],[0],[0],[0.7800605410011485],['target'],118,0,118,0,161.58447004199843,,10,161.57429566700011,161.58447004199843,161.58447004199843,0.01920595800038427,162.3543938340008,[np.float64(0.25277777777777777)],[np.float64(0.1986111111111111)],[1],[0],[0],[0.7800605410011485],['target'],saloni 3,001,2025-09-29_18h24.22.550,visual search task 1,,2025.1.1,119.73108397971737,2025-09-29 18h24.32.679422 +0530,
119,0,119,[np.float64(0.09027777777777778)],[np.float64(-0.2513888888888889)],[1],[0],[0],[1.8840709170035552],['target'],119,0,119,0,162.37835983399418,,10,162.36946808399807,162.37835983399418,162.37835983399418,0.014968124989536591,164.25358558399603,[np.float64(0.09027777777777778)],[np.float64(-0.2513888888888889)],[1],[0],[0],[1.8840709170035552],['target'],saloni 3,001,2025-09-29_18h24.22.550,visual search task 1,,2025.1.1,119.73108397971737,2025-09-29 18h24.32.679422 +0530,
120,0,120,[np.float64(-0.075)],[np.float64(-0.19166666666666668)],[1],[0],[0],[0.7427907090022927],['target'],120,0,120,0,164.2684801669966,,5,164.26180199999362,164.2684801669966,164.2684801669966,0.008093249998637475,165.0046740839898,[np.float64(-0.075)],[np.float64(-0.19166666666666668)],[1],[0],[0],[0.7427907090022927],['target'],saloni 3,001,2025-09-29_18h24.22.550,visual search task 1,,2025.1.1,119.73108397971737,2025-09-29 18h24.32.679422 +0530,
121,0,121,[np.float64(0.20694444444444443)],[np.float64(-0.2791666666666667)],[1],[0],[0],[1.34715104100178],['target'],121,0,121,0,165.0343566669908,,10,165.023625834001,165.0343566669908,165.0343566669908,0.018818875003489666,166.37082641699817,[np.float64(0.20694444444444443)],[np.float64(-0.2791666666666667)],[1],[0],[0],[1.34715104100178],['target'],saloni 3,001,2025-09-29_18h24.22.550,visual search task 1,,2025.1.1,119.73108397971737,2025-09-29 18h24.32.679422 +0530,
122,0,122,"[np.float64(0.4652777777777778), np.float64(0.43472222222222223)]","[np.float64(-0.30277777777777776), np.float64(-0.2708333333333333)]","[1, 1]","[0, 0]","[0, 0]","[1.0667892079945887, 1.850316042007762]","[None, 'target']",122,0,122,0,166.39581933399313,,10,166.38671541700023,166.39581933399313,166.39581933399313,0.015768541998113506,168.23708433400316,"[np.float64(0.4652777777777778), np.float64(0.43472222222222223)]","[np.float64(-0.30277777777777776), np.float64(-0.2708333333333333)]","[1, 1]","[0, 0]","[0, 0]","[1.0667892079945887, 1.850316042007762]","[None, 'target']",saloni 3,001,2025-09-29_18h24.22.550,visual search task 1,,2025.1.1,119.73108397971737,2025-09-29 18h24.32.679422 +0530,
123,0,123,[np.float64(-0.17083333333333334)],[np.float64(0.18055555555555555)],[1],[0],[0],[0.8762112080003135],['target'],123,0,123,0,168.2531092089921,,5,168.24594062499818,168.2531092089921,168.2531092089921,0.008721540987608023,169.12222720899445,[np.float64(-0.17083333333333334)],[np.float64(0.18055555555555555)],[1],[0],[0],[0.8762112080003135],['target'],saloni 3,001,2025-09-29_18h24.22.550,visual search task 1,,2025.1.1,119.73108397971737,2025-09-29 18h24.32.679422 +0530,
124,0,124,"[np.float64(-0.4263888888888889), np.float64(-0.4097222222222222)]","[np.float64(0.03333333333333333), np.float64(0.022222222222222223)]","[1, 1]","[0, 0]","[0, 0]","[1.1216247080010362, 1.5717121249908814]","[None, 'target']",124,0,124,0,169.1407241249981,,5,169.13281233399175,169.1407241249981,169.1407241249981,0.010462834005011246,170.7046002499992,"[np.float64(-0.4263888888888889), np.float64(-0.4097222222222222)]","[np.float64(0.03333333333333333), np.float64(0.022222222222222223)]","[1, 1]","[0, 0]","[0, 0]","[1.1216247080010362, 1.5717121249908814]","[None, 'target']",saloni 3,001,2025-09-29_18h24.22.550,visual search task 1,,2025.1.1,119.73108397971737,2025-09-29 18h24.32.679422 +0530,
125,0,125,[np.float64(0.14444444444444443)],[np.float64(-0.15694444444444444)],[1],[0],[0],[0.9386054999922635],['target'],125,0,125,0,170.72571787500056,,5,170.71611141700123,170.72571787500056,170.72571787500056,0.01136416700319387,171.65477516700048,[np.float64(0.14444444444444443)],[np.float64(-0.15694444444444444)],[1],[0],[0],[0.9386054999922635],['target'],saloni 3,001,2025-09-29_18h24.22.550,visual search task 1,,2025.1.1,119.73108397971737,2025-09-29 18h24.32.679422 +0530,
126,0,126,[np.float64(0.35833333333333334)],[np.float64(-0.3875)],[1],[0],[0],[1.2574354160024086],['target'],126,0,126,0,171.6726942499954,,5,171.6650402499945,171.6726942499954,171.6726942499954,0.010147916007554159,172.92254674999276,[np.float64(0.35833333333333334)],[np.float64(-0.3875)],[1],[0],[0],[1.2574354160024086],['target'],saloni 3,001,2025-09-29_18h24.22.550,visual search task 1,,2025.1.1,119.73108397971737,2025-09-29 18h24.32.679422 +0530,
127,0,127,[np.float64(0.3055555555555556)],[np.float64(-0.025)],[1],[0],[0],[1.1045799590065144],['target'],127,0,127,0,172.94078987499233,,5,172.93286579199776,172.94078987499233,172.94078987499233,0.01019270799588412,174.03750712500187,[np.float64(0.3055555555555556)],[np.float64(-0.025)],[1],[0],[0],[1.1045799590065144],['target'],saloni 3,001,2025-09-29_18h24.22.550,visual search task 1,,2025.1.1,119.73108397971737,2025-09-29 18h24.32.679422 +0530,
128,0,128,[np.float64(0.31527777777777777)],[np.float64(-0.07361111111111111)],[1],[0],[0],[0.7824711660068715],['target'],128,0,128,0,174.06439254200086,,10,174.05465916699904,174.06439254200086,174.06439254200086,0.017035833006957546,174.8371965839906,[np.float64(0.31527777777777777)],[np.float64(-0.07361111111111111)],[1],[0],[0],[0.7824711660068715],['target'],saloni 3,001,2025-09-29_18h24.22.550,visual search task 1,,2025.1.1,119.73108397971737,2025-09-29 18h24.32.679422 +0530,
129,0,129,"[np.float64(0.18333333333333332), np.float64(0.14583333333333334)]","[np.float64(0.18055555555555555), np.float64(0.19583333333333333)]","[1, 1]","[0, 0]","[0, 0]","[0.7691571670002304, 1.2519804170005955]","[None, 'target']",129,0,129,0,174.86130645900266,,10,174.85164312500274,174.86130645900266,174.86130645900266,0.014335125000798143,176.10366987499583,"[np.float64(0.18333333333333332), np.float64(0.14583333333333334)]","[np.float64(0.18055555555555555), np.float64(0.19583333333333333)]","[1, 1]","[0, 0]","[0, 0]","[0.7691571670002304, 1.2519804170005955]","[None, 'target']",saloni 3,001,2025-09-29_18h24.22.550,visual search task 1,,2025.1.1,119.73108397971737,2025-09-29 18h24.32.679422 +0530,
130,0,130,[np.float64(-0.001388888888888889)],[np.float64(-0.04861111111111111)],[1],[0],[0],[0.9085576670040609],['target'],130,0,130,0,176.12008324998897,,5,176.11288404199877,176.12008324998897,176.12008324998897,0.009074625006178394,177.0215187499998,[np.float64(-0.001388888888888889)],[np.float64(-0.04861111111111111)],[1],[0],[0],[0.9085576670040609],['target'],saloni 3,001,2025-09-29_18h24.22.550,visual search task 1,,2025.1.1,119.73108397971737,2025-09-29 18h24.32.679422 +0530,
131,0,131,[np.float64(0.325)],[np.float64(-0.43472222222222223)],[1],[0],[0],[1.7119595840049442],['target'],131,0,131,0,177.0529012499901,,10,177.04213287499442,177.0529012499901,177.0529012499901,0.020507082997937687,178.75413770899468,[np.float64(0.325)],[np.float64(-0.43472222222222223)],[1],[0],[0],[1.7119595840049442],['target'],saloni 3,001,2025-09-29_18h24.22.550,visual search task 1,,2025.1.1,119.73108397971737,2025-09-29 18h24.32.679422 +0530,
132,0,132,[np.float64(-0.34305555555555556)],[np.float64(-0.04722222222222222)],[1],[0],[0],[0.8591800839931238],['target'],132,0,132,0,178.7684180840006,,5,178.7618588339974,178.7684180840006,178.7684180840006,0.007608917003381066,179.6211171670002,[np.float64(-0.34305555555555556)],[np.float64(-0.04722222222222222)],[1],[0],[0],[0.8591800839931238],['target'],saloni 3,001,2025-09-29_18h24.22.550,visual search task 1,,2025.1.1,119.73108397971737,2025-09-29 18h24.32.679422 +0530,
133,0,133,[np.float64(0.45)],[np.float64(-0.35138888888888886)],[1],[0],[0],[1.2137339170003543],['target'],133,0,133,0,179.6510324589908,,10,179.64043345898972,179.6510324589908,179.6510324589908,0.0191869999980554,180.8542127499968,[np.float64(0.45)],[np.float64(-0.35138888888888886)],[1],[0],[0],[1.2137339170003543],['target'],saloni 3,001,2025-09-29_18h24.22.550,visual search task 1,,2025.1.1,119.73108397971737,2025-09-29 18h24.32.679422 +0530,
134,0,134,[np.float64(-0.16666666666666666)],[np.float64(-0.09722222222222222)],[1],[0],[0],[2.184565957999439],['target'],134,0,134,0,180.8781141669897,,10,180.8690006669931,180.8781141669897,180.8781141669897,0.014678916995762847,183.053622041989,[np.float64(-0.16666666666666666)],[np.float64(-0.09722222222222222)],[1],[0],[0],[2.184565957999439],['target'],saloni 3,001,2025-09-29_18h24.22.550,visual search task 1,,2025.1.1,119.73108397971737,2025-09-29 18h24.32.679422 +0530,
135,0,135,[np.float64(0.4097222222222222)],[np.float64(0.20972222222222223)],[1],[0],[0],[1.6350171249941923],['target'],135,0,135,0,183.07852995899157,,10,183.06897695899534,183.07852995899157,183.07852995899157,0.015211249992717057,184.704046999992,[np.float64(0.4097222222222222)],[np.float64(0.20972222222222223)],[1],[0],[0],[1.6350171249941923],['target'],saloni 3,001,2025-09-29_18h24.22.550,visual search task 1,,2025.1.1,119.73108397971737,2025-09-29 18h24.32.679422 +0530,
136,0,136,[np.float64(-0.4638888888888889)],[np.float64(-0.10972222222222222)],[1],[0],[0],[1.017700791999232],['target'],136,0,136,0,184.72913054199307,,10,184.71979208399716,184.72913054199307,184.72913054199307,0.015626917011104524,185.73753408399352,[np.float64(-0.4638888888888889)],[np.float64(-0.10972222222222222)],[1],[0],[0],[1.017700791999232],['target'],saloni 3,001,2025-09-29_18h24.22.550,visual search task 1,,2025.1.1,119.73108397971737,2025-09-29 18h24.32.679422 +0530,
137,0,137,[np.float64(-0.20694444444444443)],[np.float64(-0.10972222222222222)],[1],[0],[0],[0.8188362499931827],['target'],137,0,137,0,185.76153866699315,,10,185.75247879199742,185.76153866699315,185.76153866699315,0.014835000009043142,186.5713678339962,[np.float64(-0.20694444444444443)],[np.float64(-0.10972222222222222)],[1],[0],[0],[0.8188362499931827],['target'],saloni 3,001,2025-09-29_18h24.22.550,visual search task 1,,2025.1.1,119.73108397971737,2025-09-29 18h24.32.679422 +0530,
138,0,138,[np.float64(-0.1125)],[np.float64(-0.18611111111111112)],[1],[0],[0],[1.0839429579937132],['target'],138,0,138,0,186.5963310419902,,10,186.586996500002,186.5963310419902,186.5963310419902,0.015521249995799735,187.670984958997,[np.float64(-0.1125)],[np.float64(-0.18611111111111112)],[1],[0],[0],[1.0839429579937132],['target'],saloni 3,001,2025-09-29_18h24.22.550,visual search task 1,,2025.1.1,119.73108397971737,2025-09-29 18h24.32.679422 +0530,
139,0,139,"[np.float64(0.3486111111111111), np.float64(0.325)]","[np.float64(0.3611111111111111), np.float64(0.36527777777777776)]","[1, 1]","[0, 0]","[0, 0]","[1.6504512500105193, 2.151017750002211]","[None, 'target']",139,0,139,0,187.69618345898925,,10,187.68684758400195,187.69618345898925,187.69618345898925,0.015738750007585622,189.8379159999895,"[np.float64(0.3486111111111111), np.float64(0.325)]","[np.float64(0.3611111111111111), np.float64(0.36527777777777776)]","[1, 1]","[0, 0]","[0, 0]","[1.6504512500105193, 2.151017750002211]","[None, 'target']",saloni 3,001,2025-09-29_18h24.22.550,visual search task 1,,2025.1.1,119.73108397971737,2025-09-29 18h24.32.679422 +0530,
140,0,140,[np.float64(0.1597222222222222)],[np.float64(-0.08611111111111111)],[1],[0],[0],[0.7915468749997672],['target'],140,0,140,0,189.85447012499208,,5,189.84710662499128,189.85447012499208,189.85447012499208,0.009052209003129974,190.63872387500305,[np.float64(0.1597222222222222)],[np.float64(-0.08611111111111111)],[1],[0],[0],[0.7915468749997672],['target'],saloni 3,001,2025-09-29_18h24.22.550,visual search task 1,,2025.1.1,119.73108397971737,2025-09-29 18h24.32.679422 +0530,
141,0,141,[np.float64(-0.13333333333333333)],[np.float64(0.14166666666666666)],[1],[0],[0],[0.7143167080066632],['target'],141,0,141,0,190.66666883399012,,10,190.65696816699347,190.66666883399012,190.66666883399012,0.01812900000368245,191.37133612499747,[np.float64(-0.13333333333333333)],[np.float64(0.14166666666666666)],[1],[0],[0],[0.7143167080066632],['target'],saloni 3,001,2025-09-29_18h24.22.550,visual search task 1,,2025.1.1,119.73108397971737,2025-09-29 18h24.32.679422 +0530,
142,0,142,[np.float64(0.06666666666666667)],[np.float64(-0.4013888888888889)],[1],[0],[0],[1.2013362080033403],['target'],142,0,142,0,191.39607299999625,,10,191.38673958399158,191.39607299999625,191.39607299999625,0.015278916995157488,192.58812149999721,[np.float64(0.06666666666666667)],[np.float64(-0.4013888888888889)],[1],[0],[0],[1.2013362080033403],['target'],saloni 3,001,2025-09-29_18h24.22.550,visual search task 1,,2025.1.1,119.73108397971737,2025-09-29 18h24.32.679422 +0530,
143,0,143,"[np.float64(0.16805555555555557), np.float64(0.12083333333333333)]","[np.float64(-0.06805555555555555), np.float64(-0.08472222222222223)]","[1, 1]","[0, 0]","[0, 0]","[0.8092393749975599, 1.2257572500093374]","[None, 'target']",143,0,143,0,192.60234712499368,,5,192.59589704200334,192.60234712499368,192.60234712499368,0.007665625002118759,193.82173387499643,"[np.float64(0.16805555555555557), np.float64(0.12083333333333333)]","[np.float64(-0.06805555555555555), np.float64(-0.08472222222222223)]","[1, 1]","[0, 0]","[0, 0]","[0.8092393749975599, 1.2257572500093374]","[None, 'target']",saloni 3,001,2025-09-29_18h24.22.550,visual search task 1,,2025.1.1,119.73108397971737,2025-09-29 18h24.32.679422 +0530,
144,0,144,[np.float64(0.4736111111111111)],[np.float64(0.44027777777777777)],[1],[0],[0],[1.8056943749979837],['target'],144,0,144,0,193.8414472919976,,5,193.8330239999923,193.8414472919976,193.8414472919976,0.011137749999761581,195.63879229199665,[np.float64(0.4736111111111111)],[np.float64(0.44027777777777777)],[1],[0],[0],[1.8056943749979837],['target'],saloni 3,001,2025-09-29_18h24.22.550,visual search task 1,,2025.1.1,119.73108397971737,2025-09-29 18h24.32.679422 +0530,
145,0,145,[np.float64(0.325)],[np.float64(0.4375)],[1],[0],[0],[1.0460752499930095],['target'],145,0,145,0,195.66936666698894,,10,195.65849654198973,195.66936666698894,195.66936666698894,0.019573875004425645,196.70461858400085,[np.float64(0.325)],[np.float64(0.4375)],[1],[0],[0],[1.0460752499930095],['target'],saloni 3,001,2025-09-29_18h24.22.550,visual search task 1,,2025.1.1,119.73108397971737,2025-09-29 18h24.32.679422 +0530,
146,0,146,[np.float64(0.03611111111111111)],[np.float64(0.20833333333333334)],[1],[0],[0],[1.1086226670013275],['target'],146,0,146,0,196.72008841700153,,5,196.71289995899133,196.72008841700153,196.72008841700153,0.00817270900006406,197.8215917089983,[np.float64(0.03611111111111111)],[np.float64(0.20833333333333334)],[1],[0],[0],[1.1086226670013275],['target'],saloni 3,001,2025-09-29_18h24.22.550,visual search task 1,,2025.1.1,119.73108397971737,2025-09-29 18h24.32.679422 +0530,
147,0,147,[np.float64(-0.07222222222222222)],[np.float64(-0.005555555555555556)],[1],[0],[0],[0.6574057500110939],['target'],147,0,147,0,197.8383432089904,,5,197.83099545899313,197.8383432089904,197.8383432089904,0.009291542010032572,198.48846929200226,[np.float64(-0.07222222222222222)],[np.float64(-0.005555555555555556)],[1],[0],[0],[0.6574057500110939],['target'],saloni 3,001,2025-09-29_18h24.22.550,visual search task 1,,2025.1.1,119.73108397971737,2025-09-29 18h24.32.679422 +0530,
148,0,148,[np.float64(0.15833333333333333)],[np.float64(0.14305555555555555)],[1],[0],[0],[0.7805069580062991],['target'],148,0,148,0,198.5167742499907,,10,198.5070834169892,198.5167742499907,198.5167742499907,0.018498292003641836,199.28763749999052,[np.float64(0.15833333333333333)],[np.float64(0.14305555555555555)],[1],[0],[0],[0.7805069580062991],['target'],saloni 3,001,2025-09-29_18h24.22.550,visual search task 1,,2025.1.1,119.73108397971737,2025-09-29 18h24.32.679422 +0530,
149,0,149,[np.float64(-0.14722222222222223)],[np.float64(-0.3680555555555556)],[1],[0],[0],[1.4099560000031488],['target'],149,0,149,0,199.30337429199426,,5,199.29618399999163,199.30337429199426,199.30337429199426,0.00843587500276044,200.70620358399174,[np.float64(-0.14722222222222223)],[np.float64(-0.3680555555555556)],[1],[0],[0],[1.4099560000031488],['target'],saloni 3,001,2025-09-29_18h24.22.550,visual search task 1,,2025.1.1,119.73108397971737,2025-09-29 18h24.32.679422 +0530,
150,0,150,[np.float64(-0.05)],[np.float64(0.1375)],[1],[0],[0],[1.0448426670045592],['target'],150,0,150,0,200.7366314999963,,10,200.72607929199876,200.7366314999963,200.7366314999963,0.019747958998777904,201.77095862499846,[np.float64(-0.05)],[np.float64(0.1375)],[1],[0],[0],[1.0448426670045592],['target'],saloni 3,001,2025-09-29_18h24.22.550,visual search task 1,,2025.1.1,119.73108397971737,2025-09-29 18h24.32.679422 +0530,
151,0,151,[np.float64(0.019444444444444445)],[np.float64(-0.43333333333333335)],[1],[0],[0],[1.2523431250010617],['target'],151,0,151,0,201.79554270899098,,10,201.78612933399563,201.79554270899098,201.79554270899098,0.015060165998875163,203.0385252499982,[np.float64(0.019444444444444445)],[np.float64(-0.43333333333333335)],[1],[0],[0],[1.2523431250010617],['target'],saloni 3,001,2025-09-29_18h24.22.550,visual search task 1,,2025.1.1,119.73108397971737,2025-09-29 18h24.32.679422 +0530,
152,0,152,[np.float64(-0.11666666666666667)],[np.float64(0.08472222222222223)],[1],[0],[0],[0.9676863750064513],['target'],152,0,152,0,203.06258037500083,,10,203.05328737499076,203.06258037500083,203.06258037500083,0.01465095899766311,204.02103745899512,[np.float64(-0.11666666666666667)],[np.float64(0.08472222222222223)],[1],[0],[0],[0.9676863750064513],['target'],saloni 3,001,2025-09-29_18h24.22.550,visual search task 1,,2025.1.1,119.73108397971737,2025-09-29 18h24.32.679422 +0530,
153,0,153,[np.float64(0.4375)],[np.float64(0.38472222222222224)],[1],[0],[0],[1.6099810829909984],['target'],153,0,153,0,204.03585229199962,,5,204.02910962500027,204.03585229199962,204.03585229199962,0.007963582989759743,205.63916512500145,[np.float64(0.4375)],[np.float64(0.38472222222222224)],[1],[0],[0],[1.6099810829909984],['target'],saloni 3,001,2025-09-29_18h24.22.550,visual search task 1,,2025.1.1,119.73108397971737,2025-09-29 18h24.32.679422 +0530,
154,0,154,[np.float64(0.40555555555555556)],[np.float64(0.05555555555555555)],[1],[0],[0],[1.5285411670047324],['target'],154,0,154,0,205.67022516699217,,10,205.65945970900066,205.67022516699217,205.67022516699217,0.020166916991001926,207.18804079199617,[np.float64(0.40555555555555556)],[np.float64(0.05555555555555555)],[1],[0],[0],[1.5285411670047324],['target'],saloni 3,001,2025-09-29_18h24.22.550,visual search task 1,,2025.1.1,119.73108397971737,2025-09-29 18h24.32.679422 +0530,
155,0,155,[np.float64(-0.425)],[np.float64(0.41944444444444445)],[1],[0],[0],[1.209699917002581],['target'],155,0,155,0,207.20329654199304,,5,207.196474958997,207.20329654199304,207.20329654199304,0.008305082999868318,208.40625324999564,[np.float64(-0.425)],[np.float64(0.41944444444444445)],[1],[0],[0],[1.209699917002581],['target'],saloni 3,001,2025-09-29_18h24.22.550,visual search task 1,,2025.1.1,119.73108397971737,2025-09-29 18h24.32.679422 +0530,
156,0,156,[np.float64(0.2861111111111111)],[np.float64(0.09583333333333334)],[1],[0],[0],[1.0043674579937942],['target'],156,0,156,0,208.42529554199427,,5,208.41755883400037,208.42529554199427,208.42529554199427,0.011177209002198651,209.4219818339916,[np.float64(0.2861111111111111)],[np.float64(0.09583333333333334)],[1],[0],[0],[1.0043674579937942],['target'],saloni 3,001,2025-09-29_18h24.22.550,visual search task 1,,2025.1.1,119.73108397971737,2025-09-29 18h24.32.679422 +0530,
157,0,157,[np.float64(-0.25972222222222224)],[np.float64(0.1763888888888889)],[1],[0],[0],[0.9457893749931827],['target'],157,0,157,0,209.45329654199304,,10,209.44272391698905,209.45329654199304,209.45329654199304,0.020614917011698708,210.38855895899178,[np.float64(-0.25972222222222224)],[np.float64(0.1763888888888889)],[1],[0],[0],[0.9457893749931827],['target'],saloni 3,001,2025-09-29_18h24.22.550,visual search task 1,,2025.1.1,119.73108397971737,2025-09-29 18h24.32.679422 +0530,
158,0,158,[np.float64(0.1125)],[np.float64(0.07916666666666666)],[1],[0],[0],[0.8261620840057731],['target'],158,0,158,0,210.40363345899095,,5,210.39647120899463,210.40363345899095,210.40363345899095,0.007799415994668379,211.2227114999987,[np.float64(0.1125)],[np.float64(0.07916666666666666)],[1],[0],[0],[0.8261620840057731],['target'],saloni 3,001,2025-09-29_18h24.22.550,visual search task 1,,2025.1.1,119.73108397971737,2025-09-29 18h24.32.679422 +0530,
159,0,159,[np.float64(-0.41805555555555557)],[np.float64(0.39861111111111114)],[1],[0],[0],[1.6310794169985456],['target'],159,0,159,0,211.2514783749939,,10,211.24113999999827,211.2514783749939,211.2514783749939,0.018289458996150643,212.87226974999066,[np.float64(-0.41805555555555557)],[np.float64(0.39861111111111114)],[1],[0],[0],[1.6310794169985456],['target'],saloni 3,001,2025-09-29_18h24.22.550,visual search task 1,,2025.1.1,119.73108397971737,2025-09-29 18h24.32.679422 +0530,
160,0,160,[np.float64(-0.44722222222222224)],[np.float64(-0.29583333333333334)],[1],[0],[0],[1.3745607089949772],['target'],160,0,160,0,212.8890175419947,,5,212.88119624998944,212.8890175419947,212.8890175419947,0.008808999991742894,214.25582483399194,[np.float64(-0.44722222222222224)],[np.float64(-0.29583333333333334)],[1],[0],[0],[1.3745607089949772],['target'],saloni 3,001,2025-09-29_18h24.22.550,visual search task 1,,2025.1.1,119.73108397971737,2025-09-29 18h24.32.679422 +0530,
161,0,161,[np.float64(-0.20833333333333334)],[np.float64(0.24444444444444444)],[1],[0],[0],[1.0072560830012662],['target'],161,0,161,0,214.27344150000135,,5,214.26583274999575,214.27344150000135,214.27344150000135,0.009892374990158714,215.27314925000246,[np.float64(-0.20833333333333334)],[np.float64(0.24444444444444444)],[1],[0],[0],[1.0072560830012662],['target'],saloni 3,001,2025-09-29_18h24.22.550,visual search task 1,,2025.1.1,119.73108397971737,2025-09-29 18h24.32.679422 +0530,
162,0,162,[np.float64(-0.225)],[np.float64(0.19166666666666668)],[1],[0],[0],[0.8798243329947582],['target'],162,0,162,0,215.30249895899033,,10,215.29217641700234,215.30249895899033,215.30249895899033,0.018899167000199668,216.1720366669906,[np.float64(-0.225)],[np.float64(0.19166666666666668)],[1],[0],[0],[0.8798243329947582],['target'],saloni 3,001,2025-09-29_18h24.22.550,visual search task 1,,2025.1.1,119.73108397971737,2025-09-29 18h24.32.679422 +0530,
163,0,163,[np.float64(0.07777777777777778)],[np.float64(-0.18611111111111112)],[1],[0],[0],[1.0096153750055237],['target'],163,0,163,0,216.18752812499588,,5,216.179970666999,216.18752812499588,216.18752812499588,0.007823374995496124,217.18964741699165,[np.float64(0.07777777777777778)],[np.float64(-0.18611111111111112)],[1],[0],[0],[1.0096153750055237],['target'],saloni 3,001,2025-09-29_18h24.22.550,visual search task 1,,2025.1.1,119.73108397971737,2025-09-29 18h24.32.679422 +0530,
164,0,164,[np.float64(0.4083333333333333)],[np.float64(-0.48055555555555557)],[1],[0],[0],[1.9640102499979548],['target'],164,0,164,0,217.21772912499728,,10,217.20802212499257,217.21772912499728,217.21772912499728,0.018260374999954365,219.17207341699395,[np.float64(0.4083333333333333)],[np.float64(-0.48055555555555557)],[1],[0],[0],[1.9640102499979548],['target'],saloni 3,001,2025-09-29_18h24.22.550,visual search task 1,,2025.1.1,119.73108397971737,2025-09-29 18h24.32.679422 +0530,
165,0,165,[np.float64(-0.10694444444444444)],[np.float64(0.21388888888888888)],[1],[0],[0],[1.000426750004408],['target'],165,0,165,0,219.19729299999017,,10,219.18784258399683,219.19729299999017,219.19729299999017,0.015648457992938347,220.18833925000217,[np.float64(-0.10694444444444444)],[np.float64(0.21388888888888888)],[1],[0],[0],[1.000426750004408],['target'],saloni 3,001,2025-09-29_18h24.22.550,visual search task 1,,2025.1.1,119.73108397971737,2025-09-29 18h24.32.679422 +0530,
166,0,166,[np.float64(-0.3013888888888889)],[np.float64(0.1388888888888889)],[1],[0],[0],[1.251778457997716],['target'],166,0,166,0,220.21334295900306,,10,220.20395912499225,220.21334295900306,220.21334295900306,0.015511709003476426,221.45579195900063,[np.float64(-0.3013888888888889)],[np.float64(0.1388888888888889)],[1],[0],[0],[1.251778457997716],['target'],saloni 3,001,2025-09-29_18h24.22.550,visual search task 1,,2025.1.1,119.73108397971737,2025-09-29 18h24.32.679422 +0530,
167,0,167,[np.float64(0.3138888888888889)],[np.float64(0.2847222222222222)],[1],[0],[0],[1.3753994590078946],['target'],167,0,167,0,221.47086491699156,,5,221.4640663750033,221.47086491699156,221.47086491699156,0.008160416997270659,222.83954329199332,[np.float64(0.3138888888888889)],[np.float64(0.2847222222222222)],[1],[0],[0],[1.3753994590078946],['target'],saloni 3,001,2025-09-29_18h24.22.550,visual search task 1,,2025.1.1,119.73108397971737,2025-09-29 18h24.32.679422 +0530,
168,0,168,[np.float64(-0.5055555555555555)],[np.float64(0.0625)],[1],[0],[0],[1.231468040990876],['target'],168,0,168,0,222.86797099999967,,10,222.8576599999942,222.86797099999967,222.86797099999967,0.017988417006563395,224.08918058399286,[np.float64(-0.5055555555555555)],[np.float64(0.0625)],[1],[0],[0],[1.231468040990876],['target'],saloni 3,001,2025-09-29_18h24.22.550,visual search task 1,,2025.1.1,119.73108397971737,2025-09-29 18h24.32.679422 +0530,
169,0,169,[np.float64(0.31805555555555554)],[np.float64(0.19444444444444445)],[1],[0],[0],[1.3153665419958998],['target'],169,0,169,0,224.1168009589892,,10,224.1069261669909,224.1168009589892,224.1168009589892,0.017610166003578342,225.42233970899542,[np.float64(0.31805555555555554)],[np.float64(0.19444444444444445)],[1],[0],[0],[1.3153665419958998],['target'],saloni 3,001,2025-09-29_18h24.22.550,visual search task 1,,2025.1.1,119.73108397971737,2025-09-29 18h24.32.679422 +0530,
170,0,170,[np.float64(0.2222222222222222)],[np.float64(-0.26805555555555555)],[1],[0],[0],[0.9591003340028692],['target'],170,0,170,0,225.43798066698946,,5,225.43080729199573,225.43798066698946,225.43798066698946,0.008363959001144394,226.38996025000233,[np.float64(0.2222222222222222)],[np.float64(-0.26805555555555555)],[1],[0],[0],[0.9591003340028692],['target'],saloni 3,001,2025-09-29_18h24.22.550,visual search task 1,,2025.1.1,119.73108397971737,2025-09-29 18h24.32.679422 +0530,
171,0,171,[np.float64(-0.4111111111111111)],[np.float64(0.12638888888888888)],[1],[0],[0],[1.0289974999905098],['target'],171,0,171,0,226.42001179199724,,10,226.40961524999875,226.42001179199724,226.42001179199724,0.0195512499922188,227.43865441699745,[np.float64(-0.4111111111111111)],[np.float64(0.12638888888888888)],[1],[0],[0],[1.0289974999905098],['target'],saloni 3,001,2025-09-29_18h24.22.550,visual search task 1,,2025.1.1,119.73108397971737,2025-09-29 18h24.32.679422 +0530,
172,0,172,[np.float64(0.12777777777777777)],[np.float64(0.30416666666666664)],[1],[0],[0],[0.8262544169992907],['target'],172,0,172,0,227.45408587499696,,5,227.44683304199134,227.45408587499696,227.45408587499696,0.008069707997492515,228.27316354199138,[np.float64(0.12777777777777777)],[np.float64(0.30416666666666664)],[1],[0],[0],[0.8262544169992907],['target'],saloni 3,001,2025-09-29_18h24.22.550,visual search task 1,,2025.1.1,119.73108397971737,2025-09-29 18h24.32.679422 +0530,
173,0,173,[np.float64(-0.16944444444444445)],[np.float64(-0.23055555555555557)],[1],[0],[0],[0.7810199999948964],['target'],173,0,173,0,228.30168799999228,,10,228.29153804200178,228.30168799999228,228.30168799999228,0.018245874991407618,229.07260666700313,[np.float64(-0.16944444444444445)],[np.float64(-0.23055555555555557)],[1],[0],[0],[0.7810199999948964],['target'],saloni 3,001,2025-09-29_18h24.22.550,visual search task 1,,2025.1.1,119.73108397971737,2025-09-29 18h24.32.679422 +0530,
174,0,174,[np.float64(-0.18611111111111112)],[np.float64(0.35694444444444445)],[1],[0],[0],[1.200807041997905],['target'],174,0,174,0,229.09788241700153,,10,229.08827100000053,229.09788241700153,229.09788241700153,0.015556041995296255,230.28912487499474,[np.float64(-0.18611111111111112)],[np.float64(0.35694444444444445)],[1],[0],[0],[1.200807041997905],['target'],saloni 3,001,2025-09-29_18h24.22.550,visual search task 1,,2025.1.1,119.73108397971737,2025-09-29 18h24.32.679422 +0530,
175,0,175,[np.float64(-0.4236111111111111)],[np.float64(-0.325)],[1],[0],[0],[1.0191660829877947],['target'],175,0,175,0,230.3128174589947,,10,230.30340579200129,230.3128174589947,230.3128174589947,0.01417095800570678,231.32264899999427,[np.float64(-0.4236111111111111)],[np.float64(-0.325)],[1],[0],[0],[1.0191660829877947],['target'],saloni 3,001,2025-09-29_18h24.22.550,visual search task 1,,2025.1.1,119.73108397971737,2025-09-29 18h24.32.679422 +0530,
176,0,176,"[np.float64(-0.24027777777777778), np.float64(-0.20416666666666666)]","[np.float64(-0.41805555555555557), np.float64(-0.41944444444444445)]","[1, 1]","[0, 0]","[0, 0]","[1.434469749990967, 1.8841486250021262]","[None, 'target']",176,0,176,0,231.34721300000092,,10,231.33803195899236,231.34721300000092,231.34721300000092,0.01525529200443998,233.22223549999762,"[np.float64(-0.24027777777777778), np.float64(-0.20416666666666666)]","[np.float64(-0.41805555555555557), np.float64(-0.41944444444444445)]","[1, 1]","[0, 0]","[0, 0]","[1.434469749990967, 1.8841486250021262]","[None, 'target']",saloni 3,001,2025-09-29_18h24.22.550,visual search task 1,,2025.1.1,119.73108397971737,2025-09-29 18h24.32.679422 +0530,
177,0,177,"[np.float64(-0.28194444444444444), np.float64(0.44722222222222224), np.float64(-0.0375)]","[np.float64(-0.07361111111111111), np.float64(0.0), np.float64(0.49027777777777776)]","[1, 1, 1]","[0, 0, 0]","[0, 0, 0]","[2.9013362499972573, 3.8176132079970557, 4.650481207994744]","[None, None, 'target']",177,0,177,0,233.2482982090005,,10,233.23879154199676,233.2482982090005,233.2482982090005,0.016423416993347928,237.88932291699166,"[np.float64(-0.28194444444444444), np.float64(0.44722222222222224), np.float64(-0.0375)]","[np.float64(-0.07361111111111111), np.float64(0.0), np.float64(0.49027777777777776)]","[1, 1, 1]","[0, 0, 0]","[0, 0, 0]","[2.9013362499972573, 3.8176132079970557, 4.650481207994744]","[None, None, 'target']",saloni 3,001,2025-09-29_18h24.22.550,visual search task 1,,2025.1.1,119.73108397971737,2025-09-29 18h24.32.679422 +0530,
178,0,178,[np.float64(0.4527777777777778)],[np.float64(-0.30277777777777776)],[1],[0],[0],[1.3678082090045791],['target'],178,0,178,0,237.9139878749993,,10,237.9045974999899,237.9139878749993,237.9139878749993,0.015134040993871167,239.27244583399442,[np.float64(0.4527777777777778)],[np.float64(-0.30277777777777776)],[1],[0],[0],[1.3678082090045791],['target'],saloni 3,001,2025-09-29_18h24.22.550,visual search task 1,,2025.1.1,119.73108397971737,2025-09-29 18h24.32.679422 +0530,
179,0,179,[np.float64(0.22083333333333333)],[np.float64(-0.43472222222222223)],[1],[0],[0],[1.0425414579949575],['target'],179,0,179,0,239.2880543749925,,5,239.28084249999665,239.2880543749925,239.2880543749925,0.008286209005746059,240.32346474999213,[np.float64(0.22083333333333333)],[np.float64(-0.43472222222222223)],[1],[0],[0],[1.0425414579949575],['target'],saloni 3,001,2025-09-29_18h24.22.550,visual search task 1,,2025.1.1,119.73108397971737,2025-09-29 18h24.32.679422 +0530,
180,0,180,[np.float64(0.04583333333333333)],[np.float64(-0.4013888888888889)],[1],[0],[0],[0.8473072920023696],['target'],180,0,180,0,240.35138974999427,,10,240.34183187499002,240.35138974999427,240.35138974999427,0.01823420800792519,241.18918183399364,[np.float64(0.04583333333333333)],[np.float64(-0.4013888888888889)],[1],[0],[0],[0.8473072920023696],['target'],saloni 3,001,2025-09-29_18h24.22.550,visual search task 1,,2025.1.1,119.73108397971737,2025-09-29 18h24.32.679422 +0530,
181,0,181,[np.float64(-0.016666666666666666)],[np.float64(-0.28194444444444444)],[1],[0],[0],[0.7255445409973618],['target'],181,0,181,0,241.20527991699055,,5,241.1980452919961,241.20527991699055,241.20527991699055,0.008740666991798207,241.92366541699448,[np.float64(-0.016666666666666666)],[np.float64(-0.28194444444444444)],[1],[0],[0],[0.7255445409973618],['target'],saloni 3,001,2025-09-29_18h24.22.550,visual search task 1,,2025.1.1,119.73108397971737,2025-09-29 18h24.32.679422 +0530,
182,0,182,[np.float64(-0.20277777777777778)],[np.float64(-0.29305555555555557)],[1],[0],[0],[0.7809607500093989],['target'],182,0,182,0,241.95273999999336,,10,241.94198491699353,241.95273999999336,241.95273999999336,0.018191791998106055,242.72299733399996,[np.float64(-0.20277777777777778)],[np.float64(-0.29305555555555557)],[1],[0],[0],[0.7809607500093989],['target'],saloni 3,001,2025-09-29_18h24.22.550,visual search task 1,,2025.1.1,119.73108397971737,2025-09-29 18h24.32.679422 +0530,
183,0,183,"[np.float64(0.018055555555555554), np.float64(-0.016666666666666666)]","[np.float64(-0.09583333333333334), np.float64(-0.08611111111111111)]","[1, 1]","[0, 0]","[0, 0]","[1.8748250829958124, 2.3243362909997813]","[None, 'target']",183,0,183,0,242.73956933399313,,5,242.7320411249966,242.73956933399313,242.73956933399313,0.00891979101288598,245.05643358400266,"[np.float64(0.018055555555555554), np.float64(-0.016666666666666666)]","[np.float64(-0.09583333333333334), np.float64(-0.08611111111111111)]","[1, 1]","[0, 0]","[0, 0]","[1.8748250829958124, 2.3243362909997813]","[None, 'target']",saloni 3,001,2025-09-29_18h24.22.550,visual search task 1,,2025.1.1,119.73108397971737,2025-09-29 18h24.32.679422 +0530,
184,0,184,[np.float64(0.21666666666666667)],[np.float64(-0.2763888888888889)],[1],[0],[0],[1.0804658330016537],['target'],184,0,184,0,245.08709554199595,,10,245.07653929200023,245.08709554199595,245.08709554199595,0.01996000000508502,246.15704570899834,[np.float64(0.21666666666666667)],[np.float64(-0.2763888888888889)],[1],[0],[0],[1.0804658330016537],['target'],saloni 3,001,2025-09-29_18h24.22.550,visual search task 1,,2025.1.1,119.73108397971737,2025-09-29 18h24.32.679422 +0530,
185,0,185,[np.float64(-0.1361111111111111)],[np.float64(0.125)],[1],[0],[0],[0.8334506660030456],['target'],185,0,185,0,246.18125204199168,,10,246.17230474999815,246.18125204199168,246.18125204199168,0.015149915998335928,247.00580858399917,[np.float64(-0.1361111111111111)],[np.float64(0.125)],[1],[0],[0],[0.8334506660030456],['target'],saloni 3,001,2025-09-29_18h24.22.550,visual search task 1,,2025.1.1,119.73108397971737,2025-09-29 18h24.32.679422 +0530,
186,0,186,[np.float64(0.13472222222222222)],[np.float64(-0.44583333333333336)],[1],[0],[0],[1.0589791660022456],['target'],186,0,186,0,247.02132929199433,,5,247.01432591699995,247.02132929199433,247.02132929199433,0.008376582991331816,248.07338037498994,[np.float64(0.13472222222222222)],[np.float64(-0.44583333333333336)],[1],[0],[0],[1.0589791660022456],['target'],saloni 3,001,2025-09-29_18h24.22.550,visual search task 1,,2025.1.1,119.73108397971737,2025-09-29 18h24.32.679422 +0530,
187,0,187,[np.float64(-0.03333333333333333)],[np.float64(-0.2902777777777778)],[1],[0],[0],[1.2140117500093766],['target'],187,0,187,0,248.10233195900219,,10,248.09203308400174,248.10233195900219,248.10233195900219,0.018525708001106977,249.30609437500243,[np.float64(-0.03333333333333333)],[np.float64(-0.2902777777777778)],[1],[0],[0],[1.2140117500093766],['target'],saloni 3,001,2025-09-29_18h24.22.550,visual search task 1,,2025.1.1,119.73108397971737,2025-09-29 18h24.32.679422 +0530,
188,0,188,[np.float64(-0.28888888888888886)],[np.float64(0.39444444444444443)],[1],[0],[0],[1.509616958006518],['target'],188,0,188,0,249.3213740420033,,5,249.31413274999068,249.3213740420033,249.3213740420033,0.007916665999800898,250.82381758399424,[np.float64(-0.28888888888888886)],[np.float64(0.39444444444444443)],[1],[0],[0],[1.509616958006518],['target'],saloni 3,001,2025-09-29_18h24.22.550,visual search task 1,,2025.1.1,119.73108397971737,2025-09-29 18h24.32.679422 +0530,
189,0,189,[np.float64(-0.10694444444444444)],[np.float64(0.37916666666666665)],[1],[0],[0],[0.881003457994666],['target'],189,0,189,0,250.85228712500248,,10,250.84208337499877,250.85228712500248,250.85228712500248,0.01813949999632314,251.72313699999359,[np.float64(-0.10694444444444444)],[np.float64(0.37916666666666665)],[1],[0],[0],[0.881003457994666],['target'],saloni 3,001,2025-09-29_18h24.22.550,visual search task 1,,2025.1.1,119.73108397971737,2025-09-29 18h24.32.679422 +0530,
190,0,190,[np.float64(0.18055555555555555)],[np.float64(-0.45)],[1],[0],[0],[2.201769792009145],['target'],190,0,190,0,251.74674070900073,,10,251.73768066699267,251.74674070900073,251.74674070900073,0.014431917006731965,253.9395099169924,[np.float64(0.18055555555555555)],[np.float64(-0.45)],[1],[0],[0],[2.201769792009145],['target'],saloni 3,001,2025-09-29_18h24.22.550,visual search task 1,,2025.1.1,119.73108397971737,2025-09-29 18h24.32.679422 +0530,
191,0,191,[np.float64(0.38472222222222224)],[np.float64(-0.027777777777777776)],[1],[0],[0],[1.2844087080011377],['target'],191,0,191,0,253.96443395900133,,10,253.95459904200106,253.96443395900133,253.96443395900133,0.014979125000536442,255.23905791700236,[np.float64(0.38472222222222224)],[np.float64(-0.027777777777777776)],[1],[0],[0],[1.2844087080011377],['target'],saloni 3,001,2025-09-29_18h24.22.550,visual search task 1,,2025.1.1,119.73108397971737,2025-09-29 18h24.32.679422 +0530,
192,0,192,[np.float64(0.4361111111111111)],[np.float64(-0.14305555555555555)],[1],[0],[0],[1.118800791009562],['target'],192,0,192,0,255.2633241250005,,10,255.25424116700015,255.2633241250005,255.2633241250005,0.01507433399092406,256.3730926249991,[np.float64(0.4361111111111111)],[np.float64(-0.14305555555555555)],[1],[0],[0],[1.118800791009562],['target'],saloni 3,001,2025-09-29_18h24.22.550,visual search task 1,,2025.1.1,119.73108397971737,2025-09-29 18h24.32.679422 +0530,
193,0,193,[np.float64(-0.4875)],[np.float64(-0.2111111111111111)],[1],[0],[0],[3.0032209170021815],['target'],193,0,193,0,256.39724125000066,,10,256.38801491699996,256.39724125000066,256.39724125000066,0.014813207992119715,259.39129304199014,[np.float64(-0.4875)],[np.float64(-0.2111111111111111)],[1],[0],[0],[3.0032209170021815],['target'],saloni 3,001,2025-09-29_18h24.22.550,visual search task 1,,2025.1.1,119.73108397971737,2025-09-29 18h24.32.679422 +0530,
194,0,194,[np.float64(-0.15833333333333333)],[np.float64(-0.4597222222222222)],[1],[0],[0],[1.4500398340023821],['target'],194,0,194,0,259.41653862499516,,10,259.4071314169996,259.41653862499516,259.41653862499516,0.015713000000687316,260.8572203340009,[np.float64(-0.15833333333333333)],[np.float64(-0.4597222222222222)],[1],[0],[0],[1.4500398340023821],['target'],saloni 3,001,2025-09-29_18h24.22.550,visual search task 1,,2025.1.1,119.73108397971737,2025-09-29 18h24.32.679422 +0530,
195,0,195,[np.float64(-0.16111111111111112)],[np.float64(0.2111111111111111)],[1],[0],[0],[1.0577859159966465],['target'],195,0,195,0,260.8733446249971,,5,260.8662497089972,260.8733446249971,260.8733446249971,0.008911582990549505,261.9241080840002,[np.float64(-0.16111111111111112)],[np.float64(0.2111111111111111)],[1],[0],[0],[1.0577859159966465],['target'],saloni 3,001,2025-09-29_18h24.22.550,visual search task 1,,2025.1.1,119.73108397971737,2025-09-29 18h24.32.679422 +0530,
196,0,196,[np.float64(0.15694444444444444)],[np.float64(-0.06388888888888888)],[1],[0],[0],[0.856119916003081],['target'],196,0,196,0,261.94228187500266,,5,261.9344298340002,261.94228187500266,261.94228187500266,0.01020075000997167,262.7906057090004,[np.float64(0.15694444444444444)],[np.float64(-0.06388888888888888)],[1],[0],[0],[0.856119916003081],['target'],saloni 3,001,2025-09-29_18h24.22.550,visual search task 1,,2025.1.1,119.73108397971737,2025-09-29 18h24.32.679422 +0530,
197,0,197,[np.float64(0.07916666666666666)],[np.float64(0.46111111111111114)],[1],[0],[0],[1.512417624995578],['target'],197,0,197,0,262.82133474999864,,10,262.81102458399255,262.82133474999864,262.82133474999864,0.02029104200482834,264.3234853749891,[np.float64(0.07916666666666666)],[np.float64(0.46111111111111114)],[1],[0],[0],[1.512417624995578],['target'],saloni 3,001,2025-09-29_18h24.22.550,visual search task 1,,2025.1.1,119.73108397971737,2025-09-29 18h24.32.679422 +0530,
198,0,198,[np.float64(-0.46805555555555556)],[np.float64(-0.2569444444444444)],[1],[0],[0],[1.3095206250000047],['target'],198,0,198,0,264.33868995899684,,5,264.33157254199614,264.33868995899684,264.33868995899684,0.007978583002113737,265.64116887499404,[np.float64(-0.46805555555555556)],[np.float64(-0.2569444444444444)],[1],[0],[0],[1.3095206250000047],['target'],saloni 3,001,2025-09-29_18h24.22.550,visual search task 1,,2025.1.1,119.73108397971737,2025-09-29 18h24.32.679422 +0530,
199,0,199,[np.float64(0.49722222222222223)],[np.float64(0.44305555555555554)],[1],[0],[0],[2.58811224999954],['target'],199,0,199,0,265.6614274589956,,5,265.65244733399595,265.6614274589956,265.6614274589956,0.011154958003317006,268.24064654199174,[np.float64(0.49722222222222223)],[np.float64(0.44305555555555554)],[1],[0],[0],[2.58811224999954],['target'],saloni 3,001,2025-09-29_18h24.22.550,visual search task 1,,2025.1.1,119.73108397971737,2025-09-29 18h24.32.679422 +0530,
