thisN,thisTrialN,thisRepN,mouse.x,mouse.y,mouse.leftButton,mouse.midButton,mouse.rightButton,mouse.time,mouse.clicked_name,trials.thisRepN,trials.thisTrialN,trials.thisN,trials.thisIndex,thisRow.t,notes,num_distr,trial.started,fixation.started,target.started,mouse.started,trial.stopped,trials.mouse.x,trials.mouse.y,trials.mouse.leftButton,trials.mouse.midButton,trials.mouse.rightButton,trials.mouse.time,trials.mouse.clicked_name,participant,session,date,expName,expVersion,psychopyVersion,frameRate,expStart,
0,0,0,[np.float64(0.002777777777777778)],[np.float64(0.15555555555555556)],[1],[0],[0],[2.438511166998069],['target'],0,0,0,0,0.03944883300573565,,5,0.028799708001315594,0.03944883300573565,0.03944883300573565,0.028810457995859906,2.467439458006993,[np.float64(0.002777777777777778)],[np.float64(0.15555555555555556)],[1],[0],[0],[2.438511166998069],['target'],shrey,001,2025-09-28_19h22.44.240,visual search task 1,,2025.1.1,120.34913331558806,2025-09-28 19h22.52.337261 +0530,
1,0,1,[np.float64(-0.1375)],[np.float64(0.47638888888888886)],[1],[0],[0],[2.70468929100025],['target'],1,0,1,0,2.5019695830123965,,10,2.4909024160006084,2.5019695830123965,2.5019695830123965,0.023230207996675745,5.195637583005009,[np.float64(-0.1375)],[np.float64(0.47638888888888886)],[1],[0],[0],[2.70468929100025],['target'],shrey,001,2025-09-28_19h22.44.240,visual search task 1,,2025.1.1,120.34913331558806,2025-09-28 19h22.52.337261 +0530,
2,0,2,[np.float64(-0.24027777777777778)],[np.float64(-0.044444444444444446)],[1],[0],[0],[1.1995131659932667],['target'],2,0,2,0,5.223029208005755,,10,5.212362375008524,5.223029208005755,5.223029208005755,0.016606040997430682,6.411923583000316,[np.float64(-0.24027777777777778)],[np.float64(-0.044444444444444446)],[1],[0],[0],[1.1995131659932667],['target'],shrey,001,2025-09-28_19h22.44.240,visual search task 1,,2025.1.1,120.34913331558806,2025-09-28 19h22.52.337261 +0530,
3,0,3,[np.float64(0.18333333333333332)],[np.float64(0.03333333333333333)],[1],[0],[0],[1.3338182089937618],['target'],3,0,3,0,6.43762104101188,,10,6.428186541001196,6.43762104101188,6.43762104101188,0.016137124999659136,7.762052958001732,[np.float64(0.18333333333333332)],[np.float64(0.03333333333333333)],[1],[0],[0],[1.3338182089937618],['target'],shrey,001,2025-09-28_19h22.44.240,visual search task 1,,2025.1.1,120.34913331558806,2025-09-28 19h22.52.337261 +0530,
4,0,4,[np.float64(-0.1125)],[np.float64(-0.41944444444444445)],[1],[0],[0],[2.3993902910006],['target'],4,0,4,0,7.792315583006712,,10,7.779520333002438,7.792315583006712,7.792315583006712,0.01732087499112822,10.178971916000592,[np.float64(-0.1125)],[np.float64(-0.41944444444444445)],[1],[0],[0],[2.3993902910006],['target'],shrey,001,2025-09-28_19h22.44.240,visual search task 1,,2025.1.1,120.34913331558806,2025-09-28 19h22.52.337261 +0530,
5,0,5,[np.float64(0.4125)],[np.float64(-0.39861111111111114)],[1],[0],[0],[2.2067310420097783],['target'],5,0,5,0,10.19621266600734,,5,10.189107833008165,10.19621266600734,10.19621266600734,0.009996250009862706,12.39590250000765,[np.float64(0.4125)],[np.float64(-0.39861111111111114)],[1],[0],[0],[2.2067310420097783],['target'],shrey,001,2025-09-28_19h22.44.240,visual search task 1,,2025.1.1,120.34913331558806,2025-09-28 19h22.52.337261 +0530,
6,0,6,[np.float64(-0.19305555555555556)],[np.float64(-0.175)],[1],[0],[0],[1.7615574579976965],['target'],6,0,6,0,12.42847787500068,,10,12.418022541009123,12.42847787500068,12.42847787500068,0.021971583002596162,14.179620166003588,[np.float64(-0.19305555555555556)],[np.float64(-0.175)],[1],[0],[0],[1.7615574579976965],['target'],shrey,001,2025-09-28_19h22.44.240,visual search task 1,,2025.1.1,120.34913331558806,2025-09-28 19h22.52.337261 +0530,
7,0,7,[np.float64(-0.05138888888888889)],[np.float64(0.4125)],[1],[0],[0],[2.215938041001209],['target'],7,0,7,0,14.205493291010498,,10,14.196282250006334,14.205493291010498,14.205493291010498,0.01654124999186024,16.412259375007125,[np.float64(-0.05138888888888889)],[np.float64(0.4125)],[1],[0],[0],[2.215938041001209],['target'],shrey,001,2025-09-28_19h22.44.240,visual search task 1,,2025.1.1,120.34913331558806,2025-09-28 19h22.52.337261 +0530,
8,0,8,[np.float64(0.44166666666666665)],[np.float64(0.10555555555555556)],[1],[0],[0],[1.192469624991645],['target'],8,0,8,0,16.42689662500925,,5,16.420360083007836,16.42689662500925,16.42689662500925,0.007986583004822023,17.612896833001287,[np.float64(0.44166666666666665)],[np.float64(0.10555555555555556)],[1],[0],[0],[1.192469624991645],['target'],shrey,001,2025-09-28_19h22.44.240,visual search task 1,,2025.1.1,120.34913331558806,2025-09-28 19h22.52.337261 +0530,
9,0,9,[np.float64(-0.25972222222222224)],[np.float64(0.19305555555555556)],[1],[0],[0],[1.3619145840057172],['target'],9,0,9,0,17.644506041004206,,10,17.63374983301037,17.644506041004206,17.644506041004206,0.020720083004562184,18.995719166006893,[np.float64(-0.25972222222222224)],[np.float64(0.19305555555555556)],[1],[0],[0],[1.3619145840057172],['target'],shrey,001,2025-09-28_19h22.44.240,visual search task 1,,2025.1.1,120.34913331558806,2025-09-28 19h22.52.337261 +0530,
10,0,10,[np.float64(0.2388888888888889)],[np.float64(0.3458333333333333)],[1],[0],[0],[1.4344802910054568],['target'],10,0,10,0,19.02120533300331,,10,19.011787666007876,19.02120533300331,19.02120533300331,0.01594516698969528,20.446322333009448,[np.float64(0.2388888888888889)],[np.float64(0.3458333333333333)],[1],[0],[0],[1.4344802910054568],['target'],shrey,001,2025-09-28_19h22.44.240,visual search task 1,,2025.1.1,120.34913331558806,2025-09-28 19h22.52.337261 +0530,
11,0,11,[np.float64(-0.21805555555555556)],[np.float64(0.35555555555555557)],[1],[0],[0],[1.4505892919987673],['target'],11,0,11,0,20.471763041001395,,10,20.462473916006275,20.471763041001395,20.471763041001395,0.01602650000131689,21.913112000009278,[np.float64(-0.21805555555555556)],[np.float64(0.35555555555555557)],[1],[0],[0],[1.4505892919987673],['target'],shrey,001,2025-09-28_19h22.44.240,visual search task 1,,2025.1.1,120.34913331558806,2025-09-28 19h22.52.337261 +0530,
12,0,12,[np.float64(0.0625)],[np.float64(-0.2638888888888889)],[1],[0],[0],[1.882479541003704],['target'],12,0,12,0,21.940804000012577,,10,21.931248416003655,21.940804000012577,21.940804000012577,0.017963541991775855,23.81377591600176,[np.float64(0.0625)],[np.float64(-0.2638888888888889)],[1],[0],[0],[1.882479541003704],['target'],shrey,001,2025-09-28_19h22.44.240,visual search task 1,,2025.1.1,120.34913331558806,2025-09-28 19h22.52.337261 +0530,
13,0,13,[np.float64(0.21666666666666667)],[np.float64(-0.4597222222222222)],[1],[0],[0],[1.267627833003644],['target'],13,0,13,0,23.839252500009025,,10,23.830006083007902,23.839252500009025,23.839252500009025,0.01610050001181662,25.097686041000998,[np.float64(0.21666666666666667)],[np.float64(-0.4597222222222222)],[1],[0],[0],[1.267627833003644],['target'],shrey,001,2025-09-28_19h22.44.240,visual search task 1,,2025.1.1,120.34913331558806,2025-09-28 19h22.52.337261 +0530,
14,0,14,[np.float64(0.16944444444444445)],[np.float64(0.44722222222222224)],[1],[0],[0],[2.5494545830006246],['target'],14,0,14,0,25.1239956250065,,10,25.114402250008425,25.1239956250065,25.1239956250065,0.01657766599964816,27.663903291002498,[np.float64(0.16944444444444445)],[np.float64(0.44722222222222224)],[1],[0],[0],[2.5494545830006246],['target'],shrey,001,2025-09-28_19h22.44.240,visual search task 1,,2025.1.1,120.34913331558806,2025-09-28 19h22.52.337261 +0530,
15,0,15,[np.float64(0.37777777777777777)],[np.float64(0.0625)],[1],[0],[0],[1.4578430419933284],['target'],15,0,15,0,27.68069954100065,,5,27.672998375011957,27.68069954100065,27.68069954100065,0.00895775000390131,29.13089679100085,[np.float64(0.37777777777777777)],[np.float64(0.0625)],[1],[0],[0],[1.4578430419933284],['target'],shrey,001,2025-09-28_19h22.44.240,visual search task 1,,2025.1.1,120.34913331558806,2025-09-28 19h22.52.337261 +0530,
16,0,16,[np.float64(0.1986111111111111)],[np.float64(-0.1388888888888889)],[1],[0],[0],[2.4362202920019627],['target'],16,0,16,0,29.155673208006192,,10,29.14527445800195,29.155673208006192,29.155673208006192,0.01422033399285283,31.58156108300318,[np.float64(0.1986111111111111)],[np.float64(-0.1388888888888889)],[1],[0],[0],[2.4362202920019627],['target'],shrey,001,2025-09-28_19h22.44.240,visual search task 1,,2025.1.1,120.34913331558806,2025-09-28 19h22.52.337261 +0530,
17,0,17,[np.float64(0.15416666666666667)],[np.float64(0.011111111111111112)],[1],[0],[0],[1.0392461660085246],['target'],17,0,17,0,31.598616916002356,,5,31.59122745800414,31.598616916002356,31.598616916002356,0.009500083993771113,32.63053841600777,[np.float64(0.15416666666666667)],[np.float64(0.011111111111111112)],[1],[0],[0],[1.0392461660085246],['target'],shrey,001,2025-09-28_19h22.44.240,visual search task 1,,2025.1.1,120.34913331558806,2025-09-28 19h22.52.337261 +0530,
18,0,18,[np.float64(-0.30694444444444446)],[np.float64(0.45694444444444443)],[1],[0],[0],[2.355684875001316],['target'],18,0,18,0,32.650255833010306,,5,32.64217966601427,32.650255833010306,32.650255833010306,0.01152641698718071,34.997941125009675,[np.float64(-0.30694444444444446)],[np.float64(0.45694444444444443)],[1],[0],[0],[2.355684875001316],['target'],shrey,001,2025-09-28_19h22.44.240,visual search task 1,,2025.1.1,120.34913331558806,2025-09-28 19h22.52.337261 +0530,
19,0,19,[np.float64(0.4875)],[np.float64(0.375)],[1],[0],[0],[1.788757959002396],['target'],19,0,19,0,35.017744916011,,5,35.00916387500183,35.017744916011,35.017744916011,0.01106712500040885,36.79798766601016,[np.float64(0.4875)],[np.float64(0.375)],[1],[0],[0],[1.788757959002396],['target'],shrey,001,2025-09-28_19h22.44.240,visual search task 1,,2025.1.1,120.34913331558806,2025-09-28 19h22.52.337261 +0530,
20,0,20,[np.float64(0.27361111111111114)],[np.float64(0.39166666666666666)],[1],[0],[0],[1.0553724999917904],['target'],20,0,20,0,36.81860954100557,,5,36.80982262500038,36.81860954100557,36.81860954100557,0.01171049999538809,37.865260458012926,[np.float64(0.27361111111111114)],[np.float64(0.39166666666666666)],[1],[0],[0],[1.0553724999917904],['target'],shrey,001,2025-09-28_19h22.44.240,visual search task 1,,2025.1.1,120.34913331558806,2025-09-28 19h22.52.337261 +0530,
21,0,21,[np.float64(0.2847222222222222)],[np.float64(-0.2013888888888889)],[1],[0],[0],[1.5706235839898],['target'],21,0,21,0,37.885838791000424,,5,37.87733641600062,37.885838791000424,37.885838791000424,0.011918707998120226,39.4480251250061,[np.float64(0.2847222222222222)],[np.float64(-0.2013888888888889)],[1],[0],[0],[1.5706235839898],['target'],shrey,001,2025-09-28_19h22.44.240,visual search task 1,,2025.1.1,120.34913331558806,2025-09-28 19h22.52.337261 +0530,
22,0,22,[np.float64(0.46805555555555556)],[np.float64(-0.12083333333333333)],[1],[0],[0],[1.035420250002062],['target'],22,0,22,0,39.471907083003316,,10,39.461806333012646,39.471907083003316,39.471907083003316,0.013653542002430186,40.4973092500004,[np.float64(0.46805555555555556)],[np.float64(-0.12083333333333333)],[1],[0],[0],[1.035420250002062],['target'],shrey,001,2025-09-28_19h22.44.240,visual search task 1,,2025.1.1,120.34913331558806,2025-09-28 19h22.52.337261 +0530,
23,0,23,[np.float64(0.1125)],[np.float64(-0.05694444444444444)],[1],[0],[0],[0.9002669170004083],['target'],23,0,23,0,40.52489891600271,,10,40.51523554101004,40.52489891600271,40.52489891600271,0.01776912499917671,41.41492508300871,[np.float64(0.1125)],[np.float64(-0.05694444444444444)],[1],[0],[0],[0.9002669170004083],['target'],shrey,001,2025-09-28_19h22.44.240,visual search task 1,,2025.1.1,120.34913331558806,2025-09-28 19h22.52.337261 +0530,
24,0,24,[np.float64(-0.16111111111111112)],[np.float64(-0.09305555555555556)],[1],[0],[0],[2.059929374998319],['target'],24,0,24,0,41.440493208006956,,10,41.430319375009276,41.440493208006956,41.440493208006956,0.015279875005944632,43.490295166004216,[np.float64(-0.16111111111111112)],[np.float64(-0.09305555555555556)],[1],[0],[0],[2.059929374998319],['target'],shrey,001,2025-09-28_19h22.44.240,visual search task 1,,2025.1.1,120.34913331558806,2025-09-28 19h22.52.337261 +0530,
25,0,25,[np.float64(-0.36527777777777776)],[np.float64(0.4166666666666667)],[1],[0],[0],[2.810929874991416],['target'],25,0,25,0,43.51376841599995,,10,43.50370075000683,43.51376841599995,43.51376841599995,0.013316666008904576,46.31468862500333,[np.float64(-0.36527777777777776)],[np.float64(0.4166666666666667)],[1],[0],[0],[2.810929874991416],['target'],shrey,001,2025-09-28_19h22.44.240,visual search task 1,,2025.1.1,120.34913331558806,2025-09-28 19h22.52.337261 +0530,
26,0,26,[np.float64(0.375)],[np.float64(-0.18055555555555555)],[1],[0],[0],[1.600373250010307],['target'],26,0,26,0,46.339941250000265,,10,46.33050208300119,46.339941250000265,46.339941250000265,0.015556415994069539,47.93094179101172,[np.float64(0.375)],[np.float64(-0.18055555555555555)],[1],[0],[0],[1.600373250010307],['target'],shrey,001,2025-09-28_19h22.44.240,visual search task 1,,2025.1.1,120.34913331558806,2025-09-28 19h22.52.337261 +0530,
27,0,27,[np.float64(0.37777777777777777)],[np.float64(0.19166666666666668)],[1],[0],[0],[1.1072239999921294],['target'],27,0,27,0,47.94687587500084,,5,47.939808041002834,47.94687587500084,47.94687587500084,0.008712374998140149,49.04709095800354,[np.float64(0.37777777777777777)],[np.float64(0.19166666666666668)],[1],[0],[0],[1.1072239999921294],['target'],shrey,001,2025-09-28_19h22.44.240,visual search task 1,,2025.1.1,120.34913331558806,2025-09-28 19h22.52.337261 +0530,
28,0,28,"[np.float64(-0.17777777777777778), np.float64(-0.20416666666666666), np.float64(-0.22777777777777777)]","[np.float64(0.08333333333333333), np.float64(0.1), np.float64(0.11805555555555555)]","[1, 1, 1]","[0, 0, 0]","[0, 0, 0]","[1.5028292080096435, 2.0865800000028685, 2.6856150410021655]","[None, None, 'target']",28,0,28,0,49.07081962500524,,10,49.061329583011684,49.07081962500524,49.07081962500524,0.01414554200891871,51.74700716600637,"[np.float64(-0.17777777777777778), np.float64(-0.20416666666666666), np.float64(-0.22777777777777777)]","[np.float64(0.08333333333333333), np.float64(0.1), np.float64(0.11805555555555555)]","[1, 1, 1]","[0, 0, 0]","[0, 0, 0]","[1.5028292080096435, 2.0865800000028685, 2.6856150410021655]","[None, None, 'target']",shrey,001,2025-09-28_19h22.44.240,visual search task 1,,2025.1.1,120.34913331558806,2025-09-28 19h22.52.337261 +0530,
29,0,29,[np.float64(-0.3625)],[np.float64(-0.2986111111111111)],[1],[0],[0],[1.4066469590034103],['target'],29,0,29,0,51.765034916010336,,5,51.75718162501289,51.765034916010336,51.765034916010336,0.009955875008017756,53.163887125003384,[np.float64(-0.3625)],[np.float64(-0.2986111111111111)],[1],[0],[0],[1.4066469590034103],['target'],shrey,001,2025-09-28_19h22.44.240,visual search task 1,,2025.1.1,120.34913331558806,2025-09-28 19h22.52.337261 +0530,
30,0,30,[np.float64(0.4)],[np.float64(-0.2388888888888889)],[1],[0],[0],[2.763413958993624],['target'],30,0,30,0,53.193778333006776,,10,53.183549625013256,53.193778333006776,53.193778333006776,0.01951625000219792,55.947012500007986,[np.float64(0.4)],[np.float64(-0.2388888888888889)],[1],[0],[0],[2.763413958993624],['target'],shrey,001,2025-09-28_19h22.44.240,visual search task 1,,2025.1.1,120.34913331558806,2025-09-28 19h22.52.337261 +0530,
31,0,31,[np.float64(-0.07083333333333333)],[np.float64(-0.08333333333333333)],[1],[0],[0],[1.1691150830010884],['target'],31,0,31,0,55.971688333011116,,10,55.96211000000767,55.971688333011116,55.971688333011116,0.014985834000981413,57.131274583007325,[np.float64(-0.07083333333333333)],[np.float64(-0.08333333333333333)],[1],[0],[0],[1.1691150830010884],['target'],shrey,001,2025-09-28_19h22.44.240,visual search task 1,,2025.1.1,120.34913331558806,2025-09-28 19h22.52.337261 +0530,
32,0,32,[np.float64(0.12083333333333333)],[np.float64(0.4638888888888889)],[1],[0],[0],[3.009621541990782],['target'],32,0,32,0,57.14676841600158,,5,57.139523583013215,57.14676841600158,57.14676841600158,0.008135540992952883,60.14923533301044,[np.float64(0.12083333333333333)],[np.float64(0.4638888888888889)],[1],[0],[0],[3.009621541990782],['target'],shrey,001,2025-09-28_19h22.44.240,visual search task 1,,2025.1.1,120.34913331558806,2025-09-28 19h22.52.337261 +0530,
33,0,33,[np.float64(-0.022222222222222223)],[np.float64(-0.25972222222222224)],[1],[0],[0],[1.320141042000614],['target'],33,0,33,0,60.17099787500047,,5,60.162226125001325,60.17099787500047,60.17099787500047,0.012810625004931353,61.48245783300081,[np.float64(-0.022222222222222223)],[np.float64(-0.25972222222222224)],[1],[0],[0],[1.320141042000614],['target'],shrey,001,2025-09-28_19h22.44.240,visual search task 1,,2025.1.1,120.34913331558806,2025-09-28 19h22.52.337261 +0530,
34,0,34,[np.float64(-0.29583333333333334)],[np.float64(-0.03888888888888889)],[1],[0],[0],[1.9798790829954669],['target'],34,0,34,0,61.51069658300548,,10,61.50079166601063,61.51069658300548,61.51069658300548,0.018207750006695278,63.480724583001575,[np.float64(-0.29583333333333334)],[np.float64(-0.03888888888888889)],[1],[0],[0],[1.9798790829954669],['target'],shrey,001,2025-09-28_19h22.44.240,visual search task 1,,2025.1.1,120.34913331558806,2025-09-28 19h22.52.337261 +0530,
35,0,35,[np.float64(-0.37777777777777777)],[np.float64(-0.16666666666666666)],[1],[0],[0],[1.0256554590014275],['target'],35,0,35,0,63.49686145801388,,5,63.48938883301162,63.49686145801388,63.49686145801388,0.008540999988326803,64.51511291600764,[np.float64(-0.37777777777777777)],[np.float64(-0.16666666666666666)],[1],[0],[0],[1.0256554590014275],['target'],shrey,001,2025-09-28_19h22.44.240,visual search task 1,,2025.1.1,120.34913331558806,2025-09-28 19h22.52.337261 +0530,
36,0,36,[np.float64(0.13333333333333333)],[np.float64(-0.19583333333333333)],[1],[0],[0],[1.1048487499938346],['target'],36,0,36,0,64.53452929100604,,5,64.52629941600026,64.53452929100604,64.53452929100604,0.011021833997801878,65.63119504100177,[np.float64(0.13333333333333333)],[np.float64(-0.19583333333333333)],[1],[0],[0],[1.1048487499938346],['target'],shrey,001,2025-09-28_19h22.44.240,visual search task 1,,2025.1.1,120.34913331558806,2025-09-28 19h22.52.337261 +0530,
37,0,37,[np.float64(0.5013888888888889)],[np.float64(0.015277777777777777)],[1],[0],[0],[4.854454166008509],['target'],37,0,37,0,65.65468616600265,,10,65.64475770801073,65.65468616600265,65.65468616600265,0.01348179200431332,70.49930912500713,[np.float64(0.5013888888888889)],[np.float64(0.015277777777777777)],[1],[0],[0],[4.854454166008509],['target'],shrey,001,2025-09-28_19h22.44.240,visual search task 1,,2025.1.1,120.34913331558806,2025-09-28 19h22.52.337261 +0530,
38,0,38,[np.float64(0.39305555555555555)],[np.float64(0.12638888888888888)],[1],[0],[0],[1.1236972080077976],['target'],38,0,38,0,70.51580325000396,,5,70.50864445800835,70.51580325000396,70.51580325000396,0.009148750003078021,71.63240545800363,[np.float64(0.39305555555555555)],[np.float64(0.12638888888888888)],[1],[0],[0],[1.1236972080077976],['target'],shrey,001,2025-09-28_19h22.44.240,visual search task 1,,2025.1.1,120.34913331558806,2025-09-28 19h22.52.337261 +0530,
39,0,39,[np.float64(0.45416666666666666)],[np.float64(-0.12361111111111112)],[1],[0],[0],[1.2059437919961056],['target'],39,0,39,0,71.65211308300786,,5,71.64397400000598,71.65211308300786,71.65211308300786,0.01143683299596887,72.84998320801242,[np.float64(0.45416666666666666)],[np.float64(-0.12361111111111112)],[1],[0],[0],[1.2059437919961056],['target'],shrey,001,2025-09-28_19h22.44.240,visual search task 1,,2025.1.1,120.34913331558806,2025-09-28 19h22.52.337261 +0530,
40,0,40,[np.float64(0.3111111111111111)],[np.float64(0.015277777777777777)],[1],[0],[0],[1.071703957990394],['target'],40,0,40,0,72.86748045800778,,5,72.86016320800991,72.86748045800778,72.86748045800778,0.010003709001466632,73.93192725001427,[np.float64(0.3111111111111111)],[np.float64(0.015277777777777777)],[1],[0],[0],[1.071703957990394],['target'],shrey,001,2025-09-28_19h22.44.240,visual search task 1,,2025.1.1,120.34913331558806,2025-09-28 19h22.52.337261 +0530,
41,0,41,[np.float64(0.38055555555555554)],[np.float64(-0.06666666666666667)],[1],[0],[0],[0.9731761250004638],['target'],41,0,41,0,73.95018879100098,,5,73.94223754100676,73.95018879100098,73.95018879100098,0.010185208011534996,74.91544970800169,[np.float64(0.38055555555555554)],[np.float64(-0.06666666666666667)],[1],[0],[0],[0.9731761250004638],['target'],shrey,001,2025-09-28_19h22.44.240,visual search task 1,,2025.1.1,120.34913331558806,2025-09-28 19h22.52.337261 +0530,
42,0,42,[np.float64(-0.4791666666666667)],[np.float64(0.3333333333333333)],[1],[0],[0],[1.193186707998393],['target'],42,0,42,0,74.92842254100833,,5,74.92211379100627,74.92842254100833,74.92842254100833,0.006580667002708651,76.11538766601007,[np.float64(-0.4791666666666667)],[np.float64(0.3333333333333333)],[1],[0],[0],[1.193186707998393],['target'],shrey,001,2025-09-28_19h22.44.240,visual search task 1,,2025.1.1,120.34913331558806,2025-09-28 19h22.52.337261 +0530,
43,0,43,[np.float64(-0.425)],[np.float64(0.375)],[1],[0],[0],[2.1797517079976387],['target'],43,0,43,0,76.14777854100976,,10,76.13658629100246,76.14777854100976,76.14777854100976,0.021056958008557558,78.31580316601321,[np.float64(-0.425)],[np.float64(0.375)],[1],[0],[0],[2.1797517079976387],['target'],shrey,001,2025-09-28_19h22.44.240,visual search task 1,,2025.1.1,120.34913331558806,2025-09-28 19h22.52.337261 +0530,
44,0,44,[np.float64(0.14166666666666666)],[np.float64(-0.19166666666666668)],[1],[0],[0],[1.1984004160040058],['target'],44,0,44,0,78.34405295801116,,10,78.33346937500755,78.34405295801116,78.34405295801116,0.017546916991705075,79.53191066600266,[np.float64(0.14166666666666666)],[np.float64(-0.19166666666666668)],[1],[0],[0],[1.1984004160040058],['target'],shrey,001,2025-09-28_19h22.44.240,visual search task 1,,2025.1.1,120.34913331558806,2025-09-28 19h22.52.337261 +0530,
45,0,45,[np.float64(0.12777777777777777)],[np.float64(0.43472222222222223)],[1],[0],[0],[1.1249678339954698],['target'],45,0,45,0,79.54775350001,,5,79.54055012500612,79.54775350001,79.54775350001,0.008519582988810726,80.66558112500934,[np.float64(0.12777777777777777)],[np.float64(0.43472222222222223)],[1],[0],[0],[1.1249678339954698],['target'],shrey,001,2025-09-28_19h22.44.240,visual search task 1,,2025.1.1,120.34913331558806,2025-09-28 19h22.52.337261 +0530,
46,0,46,[np.float64(-0.36666666666666664)],[np.float64(0.37222222222222223)],[1],[0],[0],[1.525120499994955],['target'],46,0,46,0,80.68167291600548,,5,80.67421025001386,80.68167291600548,80.68167291600548,0.008526124991476536,82.19939454100677,[np.float64(-0.36666666666666664)],[np.float64(0.37222222222222223)],[1],[0],[0],[1.525120499994955],['target'],shrey,001,2025-09-28_19h22.44.240,visual search task 1,,2025.1.1,120.34913331558806,2025-09-28 19h22.52.337261 +0530,
47,0,47,[np.float64(-0.4083333333333333)],[np.float64(-0.3)],[1],[0],[0],[1.539696334002656],['target'],47,0,47,0,82.2169300000096,,5,82.20938954100711,82.2169300000096,82.2169300000096,0.009874000010313466,83.74914337501104,[np.float64(-0.4083333333333333)],[np.float64(-0.3)],[1],[0],[0],[1.539696334002656],['target'],shrey,001,2025-09-28_19h22.44.240,visual search task 1,,2025.1.1,120.34913331558806,2025-09-28 19h22.52.337261 +0530,
48,0,48,[np.float64(-0.2638888888888889)],[np.float64(-0.029166666666666667)],[1],[0],[0],[1.5962597499892581],['target'],48,0,48,0,83.77902045800874,,10,83.76876291600638,83.77902045800874,83.77902045800874,0.01948820799589157,85.365069958003,[np.float64(-0.2638888888888889)],[np.float64(-0.029166666666666667)],[1],[0],[0],[1.5962597499892581],['target'],shrey,001,2025-09-28_19h22.44.240,visual search task 1,,2025.1.1,120.34913331558806,2025-09-28 19h22.52.337261 +0530,
49,0,49,[np.float64(-0.25833333333333336)],[np.float64(-0.1125)],[1],[0],[0],[1.4361983749986393],['target'],49,0,49,0,85.38840920801158,,10,85.37949737500458,85.38840920801158,85.38840920801158,0.014316415996290743,86.81576079101069,[np.float64(-0.25833333333333336)],[np.float64(-0.1125)],[1],[0],[0],[1.4361983749986393],['target'],shrey,001,2025-09-28_19h22.44.240,visual search task 1,,2025.1.1,120.34913331558806,2025-09-28 19h22.52.337261 +0530,
50,0,50,[np.float64(-0.0875)],[np.float64(0.20833333333333334)],[1],[0],[0],[1.1671132089977618],['target'],50,0,50,0,86.84069095800805,,10,86.83122191601433,86.84069095800805,86.84069095800805,0.015330416994402185,87.9983972080081,[np.float64(-0.0875)],[np.float64(0.20833333333333334)],[1],[0],[0],[1.1671132089977618],['target'],shrey,001,2025-09-28_19h22.44.240,visual search task 1,,2025.1.1,120.34913331558806,2025-09-28 19h22.52.337261 +0530,
51,0,51,[np.float64(0.375)],[np.float64(-0.23472222222222222)],[1],[0],[0],[1.6750110419961857],['target'],51,0,51,0,88.0151018750039,,5,88.00732541600883,88.0151018750039,88.0151018750039,0.008809958002530038,89.68241725000553,[np.float64(0.375)],[np.float64(-0.23472222222222222)],[1],[0],[0],[1.6750110419961857],['target'],shrey,001,2025-09-28_19h22.44.240,visual search task 1,,2025.1.1,120.34913331558806,2025-09-28 19h22.52.337261 +0530,
52,0,52,[np.float64(0.22777777777777777)],[np.float64(-0.21805555555555556)],[1],[0],[0],[2.8954264579951996],['target'],52,0,52,0,89.71328041600646,,10,89.70269291600562,89.71328041600646,89.71328041600646,0.02015866599685978,92.59815708300448,[np.float64(0.22777777777777777)],[np.float64(-0.21805555555555556)],[1],[0],[0],[2.8954264579951996],['target'],shrey,001,2025-09-28_19h22.44.240,visual search task 1,,2025.1.1,120.34913331558806,2025-09-28 19h22.52.337261 +0530,
53,0,53,[np.float64(0.30694444444444446)],[np.float64(-0.11944444444444445)],[1],[0],[0],[1.8354477079992648],['target'],53,0,53,0,92.62195891600277,,10,92.61272616600036,92.62195891600277,92.62195891600277,0.014455083990469575,94.44821633301035,[np.float64(0.30694444444444446)],[np.float64(-0.11944444444444445)],[1],[0],[0],[1.8354477079992648],['target'],shrey,001,2025-09-28_19h22.44.240,visual search task 1,,2025.1.1,120.34913331558806,2025-09-28 19h22.52.337261 +0530,
54,0,54,[np.float64(0.5166666666666667)],[np.float64(-0.2152777777777778)],[1],[0],[0],[1.3591786250035511],['target'],54,0,54,0,94.46311804100696,,5,94.45649975001288,94.46311804100696,94.46311804100696,0.00816616699739825,95.81575383301242,[np.float64(0.5166666666666667)],[np.float64(-0.2152777777777778)],[1],[0],[0],[1.3591786250035511],['target'],shrey,001,2025-09-28_19h22.44.240,visual search task 1,,2025.1.1,120.34913331558806,2025-09-28 19h22.52.337261 +0530,
55,0,55,[np.float64(-0.2763888888888889)],[np.float64(0.3236111111111111)],[1],[0],[0],[1.2395988749922253],['target'],55,0,55,0,95.83326612500241,,5,95.82565825000347,95.83326612500241,95.83326612500241,0.009789083007490262,97.06531354101025,[np.float64(-0.2763888888888889)],[np.float64(0.3236111111111111)],[1],[0],[0],[1.2395988749922253],['target'],shrey,001,2025-09-28_19h22.44.240,visual search task 1,,2025.1.1,120.34913331558806,2025-09-28 19h22.52.337261 +0530,
56,0,56,[np.float64(0.06805555555555555)],[np.float64(0.006944444444444444)],[1],[0],[0],[0.8642623750056373],['target'],56,0,56,0,97.09420516600949,,10,97.0839912500087,97.09420516600949,97.09420516600949,0.018549999993410893,97.94829454101273,[np.float64(0.06805555555555555)],[np.float64(0.006944444444444444)],[1],[0],[0],[0.8642623750056373],['target'],shrey,001,2025-09-28_19h22.44.240,visual search task 1,,2025.1.1,120.34913331558806,2025-09-28 19h22.52.337261 +0530,
57,0,57,[np.float64(0.2902777777777778)],[np.float64(-0.44027777777777777)],[1],[0],[0],[2.18415095799719],['target'],57,0,57,0,97.97290045800037,,10,97.96385754100629,97.97290045800037,97.97290045800037,0.01543691600090824,100.14805495800101,[np.float64(0.2902777777777778)],[np.float64(-0.44027777777777777)],[1],[0],[0],[2.18415095799719],['target'],shrey,001,2025-09-28_19h22.44.240,visual search task 1,,2025.1.1,120.34913331558806,2025-09-28 19h22.52.337261 +0530,
58,0,58,[np.float64(0.18888888888888888)],[np.float64(0.2013888888888889)],[1],[0],[0],[1.3089527090050979],['target'],58,0,58,0,100.16308012501395,,5,100.1563537500042,100.16308012501395,100.16308012501395,0.008176791001460515,101.465374041014,[np.float64(0.18888888888888888)],[np.float64(0.2013888888888889)],[1],[0],[0],[1.3089527090050979],['target'],shrey,001,2025-09-28_19h22.44.240,visual search task 1,,2025.1.1,120.34913331558806,2025-09-28 19h22.52.337261 +0530,
59,0,59,[np.float64(-0.18611111111111112)],[np.float64(-0.25416666666666665)],[1],[0],[0],[1.3067239579977468],['target'],59,0,59,0,101.48426975001348,,5,101.47601091601246,101.48426975001348,101.48426975001348,0.01050974999088794,102.78280812500452,[np.float64(-0.18611111111111112)],[np.float64(-0.25416666666666665)],[1],[0],[0],[1.3067239579977468],['target'],shrey,001,2025-09-28_19h22.44.240,visual search task 1,,2025.1.1,120.34913331558806,2025-09-28 19h22.52.337261 +0530,
60,0,60,[np.float64(0.37222222222222223)],[np.float64(-0.2388888888888889)],[1],[0],[0],[1.7058221659972332],['target'],60,0,60,0,102.80234275000112,,5,102.79393370800244,102.80234275000112,102.80234275000112,0.010998917001415975,104.49980933300685,[np.float64(0.37222222222222223)],[np.float64(-0.2388888888888889)],[1],[0],[0],[1.7058221659972332],['target'],shrey,001,2025-09-28_19h22.44.240,visual search task 1,,2025.1.1,120.34913331558806,2025-09-28 19h22.52.337261 +0530,
61,0,61,[np.float64(0.030555555555555555)],[np.float64(0.23055555555555557)],[1],[0],[0],[1.089523458009353],['target'],61,0,61,0,104.51750295801321,,5,104.50991320800676,104.51750295801321,104.51750295801321,0.009981750001315959,105.599504333004,[np.float64(0.030555555555555555)],[np.float64(0.23055555555555557)],[1],[0],[0],[1.089523458009353],['target'],shrey,001,2025-09-28_19h22.44.240,visual search task 1,,2025.1.1,120.34913331558806,2025-09-28 19h22.52.337261 +0530,
62,0,62,[np.float64(-0.12083333333333333)],[np.float64(0.4652777777777778)],[1],[0],[0],[2.597229499995592],['target'],62,0,62,0,105.62848608300555,,10,105.61827104100666,105.62848608300555,105.62848608300555,0.018608083002618514,108.21554908300459,[np.float64(-0.12083333333333333)],[np.float64(0.4652777777777778)],[1],[0],[0],[2.597229499995592],['target'],shrey,001,2025-09-28_19h22.44.240,visual search task 1,,2025.1.1,120.34913331558806,2025-09-28 19h22.52.337261 +0530,
63,0,63,[np.float64(0.07777777777777778)],[np.float64(0.4736111111111111)],[1],[0],[0],[1.858099500008393],['target'],63,0,63,0,108.23126704100287,,5,108.22391258300922,108.23126704100287,108.23126704100287,0.008240208000643179,110.08207062500878,[np.float64(0.07777777777777778)],[np.float64(0.4736111111111111)],[1],[0],[0],[1.858099500008393],['target'],shrey,001,2025-09-28_19h22.44.240,visual search task 1,,2025.1.1,120.34913331558806,2025-09-28 19h22.52.337261 +0530,
64,0,64,[np.float64(0.33055555555555555)],[np.float64(0.24305555555555555)],[1],[0],[0],[3.2868333329970483],['target'],64,0,64,0,110.10390008300601,,10,110.0947215410124,110.10390008300601,110.10390008300601,0.012573416999657638,113.38160541601246,[np.float64(0.33055555555555555)],[np.float64(0.24305555555555555)],[1],[0],[0],[3.2868333329970483],['target'],shrey,001,2025-09-28_19h22.44.240,visual search task 1,,2025.1.1,120.34913331558806,2025-09-28 19h22.52.337261 +0530,
65,0,65,[np.float64(-0.5152777777777777)],[np.float64(0.2388888888888889)],[1],[0],[0],[1.4257803750078892],['target'],65,0,65,0,113.3976980830048,,5,113.39062900000135,113.3976980830048,113.3976980830048,0.00890508400334511,114.81648112500261,[np.float64(-0.5152777777777777)],[np.float64(0.2388888888888889)],[1],[0],[0],[1.4257803750078892],['target'],shrey,001,2025-09-28_19h22.44.240,visual search task 1,,2025.1.1,120.34913331558806,2025-09-28 19h22.52.337261 +0530,
66,0,66,[np.float64(-0.14305555555555555)],[np.float64(0.21388888888888888)],[1],[0],[0],[1.5717886659986107],['target'],66,0,66,0,114.8347348330135,,5,114.82666833300027,114.8347348330135,114.8347348330135,0.010060833999887109,116.39851245800673,[np.float64(-0.14305555555555555)],[np.float64(0.21388888888888888)],[1],[0],[0],[1.5717886659986107],['target'],shrey,001,2025-09-28_19h22.44.240,visual search task 1,,2025.1.1,120.34913331558806,2025-09-28 19h22.52.337261 +0530,
67,0,67,[np.float64(-0.24166666666666667)],[np.float64(0.45555555555555555)],[1],[0],[0],[3.213166417001048],['target'],67,0,67,0,116.4293518330087,,10,116.41889212500246,116.4293518330087,116.4293518330087,0.020248000000719912,119.63209550001193,[np.float64(-0.24166666666666667)],[np.float64(0.45555555555555555)],[1],[0],[0],[3.213166417001048],['target'],shrey,001,2025-09-28_19h22.44.240,visual search task 1,,2025.1.1,120.34913331558806,2025-09-28 19h22.52.337261 +0530,
68,0,68,[np.float64(0.0625)],[np.float64(-0.3375)],[1],[0],[0],[1.8014463750005234],['target'],68,0,68,0,119.65740595800162,,10,119.64812950001215,119.65740595800162,119.65740595800162,0.015911999988020398,121.44963162500062,[np.float64(0.0625)],[np.float64(-0.3375)],[1],[0],[0],[1.8014463750005234],['target'],shrey,001,2025-09-28_19h22.44.240,visual search task 1,,2025.1.1,120.34913331558806,2025-09-28 19h22.52.337261 +0530,
69,0,69,[np.float64(-0.4388888888888889)],[np.float64(0.08194444444444444)],[1],[0],[0],[1.2426631660055136],['target'],69,0,69,0,121.46520295800292,,5,121.45801258301071,121.46520295800292,121.46520295800292,0.008272207996924408,122.70073079100985,[np.float64(-0.4388888888888889)],[np.float64(0.08194444444444444)],[1],[0],[0],[1.2426631660055136],['target'],shrey,001,2025-09-28_19h22.44.240,visual search task 1,,2025.1.1,120.34913331558806,2025-09-28 19h22.52.337261 +0530,
70,0,70,[np.float64(0.32222222222222224)],[np.float64(0.20555555555555555)],[1],[0],[0],[1.172081208002055],['target'],70,0,70,0,122.72044800000731,,5,122.71185833300115,122.72044800000731,122.72044800000731,0.011001124992617406,123.88399775000289,[np.float64(0.32222222222222224)],[np.float64(0.20555555555555555)],[1],[0],[0],[1.172081208002055],['target'],shrey,001,2025-09-28_19h22.44.240,visual search task 1,,2025.1.1,120.34913331558806,2025-09-28 19h22.52.337261 +0530,
71,0,71,[np.float64(-0.34444444444444444)],[np.float64(-0.4736111111111111)],[1],[0],[0],[3.981302833999507],['target'],71,0,71,0,124.04870525001024,,10,124.03547858301317,124.04870525001024,124.04870525001024,0.15134766699338797,128.01681279100012,[np.float64(-0.34444444444444444)],[np.float64(-0.4736111111111111)],[1],[0],[0],[3.981302833999507],['target'],shrey,001,2025-09-28_19h22.44.240,visual search task 1,,2025.1.1,120.34913331558806,2025-09-28 19h22.52.337261 +0530,
72,0,72,[np.float64(-0.45555555555555555)],[np.float64(0.4125)],[1],[0],[0],[2.5186492500070017],['target'],72,0,72,0,128.03980375001265,,10,128.03106350000598,128.03980375001265,128.03980375001265,0.014091999997617677,130.5497650000034,[np.float64(-0.45555555555555555)],[np.float64(0.4125)],[1],[0],[0],[2.5186492500070017],['target'],shrey,001,2025-09-28_19h22.44.240,visual search task 1,,2025.1.1,120.34913331558806,2025-09-28 19h22.52.337261 +0530,
73,0,73,[np.float64(0.47638888888888886)],[np.float64(-0.06805555555555555)],[1],[0],[0],[2.5168548750079935],['target'],73,0,73,0,130.5752052500029,,10,130.56596775000799,130.5752052500029,130.5752052500029,0.016078957996796817,133.08286470800522,[np.float64(0.47638888888888886)],[np.float64(-0.06805555555555555)],[1],[0],[0],[2.5168548750079935],['target'],shrey,001,2025-09-28_19h22.44.240,visual search task 1,,2025.1.1,120.34913331558806,2025-09-28 19h22.52.337261 +0530,
74,0,74,[np.float64(0.21944444444444444)],[np.float64(0.029166666666666667)],[1],[0],[0],[0.8087971249915427],['target'],74,0,74,0,133.09784750000108,,5,133.09073037501366,133.09784750000108,133.09784750000108,0.007754625010420568,133.8995809580083,[np.float64(0.21944444444444444)],[np.float64(0.029166666666666667)],[1],[0],[0],[0.8087971249915427],['target'],shrey,001,2025-09-28_19h22.44.240,visual search task 1,,2025.1.1,120.34913331558806,2025-09-28 19h22.52.337261 +0530,
75,0,75,[np.float64(0.1986111111111111)],[np.float64(0.2152777777777778)],[1],[0],[0],[1.0156574159918819],['target'],75,0,75,0,133.92745812500652,,10,133.9175998330029,133.92745812500652,133.92745812500652,0.017902874998981133,134.9333110830048,[np.float64(0.1986111111111111)],[np.float64(0.2152777777777778)],[1],[0],[0],[1.0156574159918819],['target'],shrey,001,2025-09-28_19h22.44.240,visual search task 1,,2025.1.1,120.34913331558806,2025-09-28 19h22.52.337261 +0530,
76,0,76,[np.float64(-0.20555555555555555)],[np.float64(-0.43333333333333335)],[1],[0],[0],[1.9414442499983124],['target'],76,0,76,0,134.94938220801123,,5,134.94225758301036,134.94938220801123,134.94938220801123,0.008820499991998076,136.8837762910116,[np.float64(-0.20555555555555555)],[np.float64(-0.43333333333333335)],[1],[0],[0],[1.9414442499983124],['target'],shrey,001,2025-09-28_19h22.44.240,visual search task 1,,2025.1.1,120.34913331558806,2025-09-28 19h22.52.337261 +0530,
77,0,77,[np.float64(0.2652777777777778)],[np.float64(-0.4013888888888889)],[1],[0],[0],[2.414742540990119],['target'],77,0,77,0,136.9124703330017,,10,136.9020629160077,136.9124703330017,136.9124703330017,0.01815812500717584,139.31686041600187,[np.float64(0.2652777777777778)],[np.float64(-0.4013888888888889)],[1],[0],[0],[2.414742540990119],['target'],shrey,001,2025-09-28_19h22.44.240,visual search task 1,,2025.1.1,120.34913331558806,2025-09-28 19h22.52.337261 +0530,
78,0,78,[np.float64(-0.3194444444444444)],[np.float64(-0.11388888888888889)],[1],[0],[0],[1.1671653329976834],['target'],78,0,78,0,139.34240366599988,,10,139.3327464160102,139.34240366599988,139.34240366599988,0.015764750001835637,140.49995991600736,[np.float64(-0.3194444444444444)],[np.float64(-0.11388888888888889)],[1],[0],[0],[1.1671653329976834],['target'],shrey,001,2025-09-28_19h22.44.240,visual search task 1,,2025.1.1,120.34913331558806,2025-09-28 19h22.52.337261 +0530,
79,0,79,[np.float64(-0.08333333333333333)],[np.float64(-0.02361111111111111)],[1],[0],[0],[1.1082867919903947],['target'],79,0,79,0,140.5160865830112,,5,140.50889466601075,140.5160865830112,140.5160865830112,0.008815332999802195,141.61724904100993,[np.float64(-0.08333333333333333)],[np.float64(-0.02361111111111111)],[1],[0],[0],[1.1082867919903947],['target'],shrey,001,2025-09-28_19h22.44.240,visual search task 1,,2025.1.1,120.34913331558806,2025-09-28 19h22.52.337261 +0530,
80,0,80,[np.float64(0.13194444444444445)],[np.float64(-0.44305555555555554)],[1],[0],[0],[1.4282822499953909],['target'],80,0,80,0,141.64893400001165,,10,141.63820075000694,141.64893400001165,141.64893400001165,0.020803874998819083,143.06652741601283,[np.float64(0.13194444444444445)],[np.float64(-0.44305555555555554)],[1],[0],[0],[1.4282822499953909],['target'],shrey,001,2025-09-28_19h22.44.240,visual search task 1,,2025.1.1,120.34913331558806,2025-09-28 19h22.52.337261 +0530,
81,0,81,[np.float64(0.4166666666666667)],[np.float64(-0.36527777777777776)],[1],[0],[0],[2.359342208990711],['target'],81,0,81,0,143.08214066601067,,5,143.07492050000292,143.08214066601067,143.08214066601067,0.008280042005935684,145.43433408300916,[np.float64(0.4166666666666667)],[np.float64(-0.36527777777777776)],[1],[0],[0],[2.359342208990711],['target'],shrey,001,2025-09-28_19h22.44.240,visual search task 1,,2025.1.1,120.34913331558806,2025-09-28 19h22.52.337261 +0530,
82,0,82,[np.float64(-0.05138888888888889)],[np.float64(0.0763888888888889)],[1],[0],[0],[1.1462439159950009],['target'],82,0,82,0,145.46454941600678,,10,145.45399391600222,145.46454941600678,145.46454941600678,0.019532582999090664,146.60028366600454,[np.float64(-0.05138888888888889)],[np.float64(0.0763888888888889)],[1],[0],[0],[1.1462439159950009],['target'],shrey,001,2025-09-28_19h22.44.240,visual search task 1,,2025.1.1,120.34913331558806,2025-09-28 19h22.52.337261 +0530,
83,0,83,[np.float64(-0.35138888888888886)],[np.float64(-0.027777777777777776)],[1],[0],[0],[1.6754577079991577],['target'],83,0,83,0,146.6149796660029,,5,146.60802087500633,146.6149796660029,146.6149796660029,0.007625583006301895,148.28353354100545,[np.float64(-0.35138888888888886)],[np.float64(-0.027777777777777776)],[1],[0],[0],[1.6754577079991577],['target'],shrey,001,2025-09-28_19h22.44.240,visual search task 1,,2025.1.1,120.34913331558806,2025-09-28 19h22.52.337261 +0530,
84,0,84,[np.float64(-0.20277777777777778)],[np.float64(-0.3861111111111111)],[0],[0],[1],[2.176518541004043],['target'],84,0,84,0,148.30055825000454,,5,148.29297141601273,148.30055825000454,148.30055825000454,0.009323167003458366,150.46955662500113,[np.float64(-0.20277777777777778)],[np.float64(-0.3861111111111111)],[0],[0],[1],[2.176518541004043],['target'],shrey,001,2025-09-28_19h22.44.240,visual search task 1,,2025.1.1,120.34913331558806,2025-09-28 19h22.52.337261 +0530,
85,0,85,[np.float64(-0.21944444444444444)],[np.float64(-0.34305555555555556)],[1],[0],[0],[0.7802820420038188],['target'],85,0,85,0,150.496152000007,,10,150.486534458003,150.496152000007,150.496152000007,0.01685966699733399,151.2668624160142,[np.float64(-0.21944444444444444)],[np.float64(-0.34305555555555556)],[1],[0],[0],[0.7802820420038188],['target'],shrey,001,2025-09-28_19h22.44.240,visual search task 1,,2025.1.1,120.34913331558806,2025-09-28 19h22.52.337261 +0530,
86,0,86,[np.float64(-0.4125)],[np.float64(-0.44166666666666665)],[1],[0],[0],[1.2428759169997647],['target'],86,0,86,0,151.2820128750027,,5,151.27495004101365,151.2820128750027,151.2820128750027,0.007974124993779697,152.51788037500228,[np.float64(-0.4125)],[np.float64(-0.44166666666666665)],[1],[0],[0],[1.2428759169997647],['target'],shrey,001,2025-09-28_19h22.44.240,visual search task 1,,2025.1.1,120.34913331558806,2025-09-28 19h22.52.337261 +0530,
87,0,87,[np.float64(-0.015277777777777777)],[np.float64(-0.075)],[1],[0],[0],[2.1743314580089645],['target'],87,0,87,0,152.53518891600834,,5,152.52761266600282,152.53518891600834,152.53518891600834,0.009614666996640153,154.70200820801256,[np.float64(-0.015277777777777777)],[np.float64(-0.075)],[1],[0],[0],[2.1743314580089645],['target'],shrey,001,2025-09-28_19h22.44.240,visual search task 1,,2025.1.1,120.34913331558806,2025-09-28 19h22.52.337261 +0530,
88,0,88,[np.float64(0.15138888888888888)],[np.float64(0.28194444444444444)],[1],[0],[0],[1.2223213329998543],['target'],88,0,88,0,154.71860941601335,,5,154.7113289580011,154.71860941601335,154.71860941601335,0.009203541005263105,155.93371166600264,[np.float64(0.15138888888888888)],[np.float64(0.28194444444444444)],[1],[0],[0],[1.2223213329998543],['target'],shrey,001,2025-09-28_19h22.44.240,visual search task 1,,2025.1.1,120.34913331558806,2025-09-28 19h22.52.337261 +0530,
89,0,89,[np.float64(-0.25833333333333336)],[np.float64(0.32083333333333336)],[1],[0],[0],[1.0225071669992758],['target'],89,0,89,0,155.9541360410076,,5,155.94527283300704,155.9541360410076,155.9541360410076,0.011432042010710575,156.96784000001207,[np.float64(-0.25833333333333336)],[np.float64(0.32083333333333336)],[1],[0],[0],[1.0225071669992758],['target'],shrey,001,2025-09-28_19h22.44.240,visual search task 1,,2025.1.1,120.34913331558806,2025-09-28 19h22.52.337261 +0530,
90,0,90,[np.float64(0.4236111111111111)],[np.float64(0.002777777777777778)],[1],[0],[0],[1.0127600420091767],['target'],90,0,90,0,156.9973475410079,,10,156.9868088330113,156.9973475410079,156.9973475410079,0.018835708004189655,157.999616333007,[np.float64(0.4236111111111111)],[np.float64(0.002777777777777778)],[1],[0],[0],[1.0127600420091767],['target'],shrey,001,2025-09-28_19h22.44.240,visual search task 1,,2025.1.1,120.34913331558806,2025-09-28 19h22.52.337261 +0530,
91,0,91,[np.float64(-0.2013888888888889)],[np.float64(0.06111111111111111)],[1],[0],[0],[0.7594395420019282],['target'],91,0,91,0,158.01498954101407,,5,158.00804241601145,158.01498954101407,158.01498954101407,0.008306457995786332,158.76754495801288,[np.float64(-0.2013888888888889)],[np.float64(0.06111111111111111)],[1],[0],[0],[0.7594395420019282],['target'],shrey,001,2025-09-28_19h22.44.240,visual search task 1,,2025.1.1,120.34913331558806,2025-09-28 19h22.52.337261 +0530,
92,0,92,[np.float64(0.12222222222222222)],[np.float64(-0.3416666666666667)],[1],[0],[0],[2.248240040993551],['target'],92,0,92,0,158.796215416005,,10,158.7860087910085,158.796215416005,158.796215416005,0.01834883300762158,161.03429779100406,[np.float64(0.12222222222222222)],[np.float64(-0.3416666666666667)],[1],[0],[0],[2.248240040993551],['target'],shrey,001,2025-09-28_19h22.44.240,visual search task 1,,2025.1.1,120.34913331558806,2025-09-28 19h22.52.337261 +0530,
93,0,93,[np.float64(0.1375)],[np.float64(0.2611111111111111)],[1],[0],[0],[1.5413045000022976],['target'],93,0,93,0,161.0502062500018,,5,161.0429417080013,161.0502062500018,161.0502062500018,0.008524250006303191,162.58430191600928,[np.float64(0.1375)],[np.float64(0.2611111111111111)],[1],[0],[0],[1.5413045000022976],['target'],shrey,001,2025-09-28_19h22.44.240,visual search task 1,,2025.1.1,120.34913331558806,2025-09-28 19h22.52.337261 +0530,
94,0,94,[np.float64(0.2152777777777778)],[np.float64(0.2652777777777778)],[1],[0],[0],[0.8066379160009092],['target'],94,0,94,0,162.60123370800284,,5,162.59386429100414,162.60123370800284,162.60123370800284,0.009445457995752804,163.40055958300945,[np.float64(0.2152777777777778)],[np.float64(0.2652777777777778)],[1],[0],[0],[0.8066379160009092],['target'],shrey,001,2025-09-28_19h22.44.240,visual search task 1,,2025.1.1,120.34913331558806,2025-09-28 19h22.52.337261 +0530,
95,0,95,[np.float64(-0.07222222222222222)],[np.float64(0.28888888888888886)],[1],[0],[0],[1.5234029999992345],['target'],95,0,95,0,163.4190505410079,,5,163.4112924580113,163.4190505410079,163.4190505410079,0.010607374992105179,164.93476545800513,[np.float64(-0.07222222222222222)],[np.float64(0.28888888888888886)],[1],[0],[0],[1.5234029999992345],['target'],shrey,001,2025-09-28_19h22.44.240,visual search task 1,,2025.1.1,120.34913331558806,2025-09-28 19h22.52.337261 +0530,
96,0,96,[np.float64(0.325)],[np.float64(0.043055555555555555)],[1],[0],[0],[1.19661095799529],['target'],96,0,96,0,164.9644432500063,,10,164.95363112501218,164.9644432500063,164.9644432500063,0.018736833008006215,166.15028708300088,[np.float64(0.325)],[np.float64(0.043055555555555555)],[1],[0],[0],[1.19661095799529],['target'],shrey,001,2025-09-28_19h22.44.240,visual search task 1,,2025.1.1,120.34913331558806,2025-09-28 19h22.52.337261 +0530,
97,0,97,[np.float64(-0.0875)],[np.float64(0.21388888888888888)],[1],[0],[0],[1.133795582994935],['target'],97,0,97,0,166.17698825000843,,10,166.1671536660142,166.17698825000843,166.17698825000843,0.016747417001170106,167.3009992080042,[np.float64(-0.0875)],[np.float64(0.21388888888888888)],[1],[0],[0],[1.133795582994935],['target'],shrey,001,2025-09-28_19h22.44.240,visual search task 1,,2025.1.1,120.34913331558806,2025-09-28 19h22.52.337261 +0530,
98,0,98,[np.float64(-0.2)],[np.float64(-0.25833333333333336)],[1],[0],[0],[1.290365208988078],['target'],98,0,98,0,167.31778408300306,,5,167.3105683330068,167.31778408300306,167.31778408300306,0.009432999999262393,168.6009946250124,[np.float64(-0.2)],[np.float64(-0.25833333333333336)],[1],[0],[0],[1.290365208988078],['target'],shrey,001,2025-09-28_19h22.44.240,visual search task 1,,2025.1.1,120.34913331558806,2025-09-28 19h22.52.337261 +0530,
99,0,99,[np.float64(0.18194444444444444)],[np.float64(0.10277777777777777)],[1],[0],[0],[0.9228483330080053],['target'],99,0,99,0,168.61998691600456,,5,168.61144079100632,168.61998691600456,168.61998691600456,0.010334709004382603,169.53435504100344,[np.float64(0.18194444444444444)],[np.float64(0.10277777777777777)],[1],[0],[0],[0.9228483330080053],['target'],shrey,001,2025-09-28_19h22.44.240,visual search task 1,,2025.1.1,120.34913331558806,2025-09-28 19h22.52.337261 +0530,
100,0,100,[np.float64(-0.18333333333333332)],[np.float64(0.3902777777777778)],[1],[0],[0],[1.0561547499964945],['target'],100,0,100,0,169.55250750000414,,5,169.54495391600358,169.55250750000414,169.55250750000414,0.010469833010574803,170.6011697500071,[np.float64(-0.18333333333333332)],[np.float64(0.3902777777777778)],[1],[0],[0],[1.0561547499964945],['target'],shrey,001,2025-09-28_19h22.44.240,visual search task 1,,2025.1.1,120.34913331558806,2025-09-28 19h22.52.337261 +0530,
101,0,101,[np.float64(-0.18472222222222223)],[np.float64(-0.08333333333333333)],[1],[0],[0],[0.9898668340028962],['target'],101,0,101,0,170.618817916009,,5,170.6111423750117,170.618817916009,170.618817916009,0.00986058299895376,171.60106829101278,[np.float64(-0.18472222222222223)],[np.float64(-0.08333333333333333)],[1],[0],[0],[0.9898668340028962],['target'],shrey,001,2025-09-28_19h22.44.240,visual search task 1,,2025.1.1,120.34913331558806,2025-09-28 19h22.52.337261 +0530,
102,0,102,"[np.float64(-0.16111111111111112), np.float64(-0.21944444444444444)]","[np.float64(0.02638888888888889), np.float64(0.030555555555555555)]","[1, 1]","[0, 0]","[0, 0]","[1.4152053339930717, 1.8651036669907626]","[None, 'target']",102,0,102,0,171.62871150000137,,10,171.61863866601198,171.62871150000137,171.62871150000137,0.017455209002946503,173.48378783299995,"[np.float64(-0.16111111111111112), np.float64(-0.21944444444444444)]","[np.float64(0.02638888888888889), np.float64(0.030555555555555555)]","[1, 1]","[0, 0]","[0, 0]","[1.4152053339930717, 1.8651036669907626]","[None, 'target']",shrey,001,2025-09-28_19h22.44.240,visual search task 1,,2025.1.1,120.34913331558806,2025-09-28 19h22.52.337261 +0530,
103,0,103,[np.float64(0.3125)],[np.float64(-0.03333333333333333)],[1],[0],[0],[0.8264806669903919],['target'],103,0,103,0,173.49975087500934,,5,173.4924534580059,173.49975087500934,173.49975087500934,0.00852895900607109,174.31899345800048,[np.float64(0.3125)],[np.float64(-0.03333333333333333)],[1],[0],[0],[0.8264806669903919],['target'],shrey,001,2025-09-28_19h22.44.240,visual search task 1,,2025.1.1,120.34913331558806,2025-09-28 19h22.52.337261 +0530,
104,0,104,[np.float64(0.4666666666666667)],[np.float64(0.3486111111111111)],[1],[0],[0],[1.6641323329968145],['target'],104,0,104,0,174.34727608300454,,10,174.3373484580079,174.34727608300454,174.34727608300454,0.018228500004624948,176.0015198750043,[np.float64(0.4666666666666667)],[np.float64(0.3486111111111111)],[1],[0],[0],[1.6641323329968145],['target'],shrey,001,2025-09-28_19h22.44.240,visual search task 1,,2025.1.1,120.34913331558806,2025-09-28 19h22.52.337261 +0530,
105,0,105,[np.float64(0.2777777777777778)],[np.float64(-0.39444444444444443)],[1],[0],[0],[2.0754222919931635],['target'],105,0,105,0,176.01789358300448,,5,176.01071700001194,176.01789358300448,176.01789358300448,0.009083415992790833,178.0862000000052,[np.float64(0.2777777777777778)],[np.float64(-0.39444444444444443)],[1],[0],[0],[2.0754222919931635],['target'],shrey,001,2025-09-28_19h22.44.240,visual search task 1,,2025.1.1,120.34913331558806,2025-09-28 19h22.52.337261 +0530,
106,0,106,[np.float64(-0.45694444444444443)],[np.float64(-0.15416666666666667)],[1],[0],[0],[1.364979416001006],['target'],106,0,106,0,178.11254700001155,,10,178.10276562500803,178.11254700001155,178.11254700001155,0.016452166993985884,179.46779758301273,[np.float64(-0.45694444444444443)],[np.float64(-0.15416666666666667)],[1],[0],[0],[1.364979416001006],['target'],shrey,001,2025-09-28_19h22.44.240,visual search task 1,,2025.1.1,120.34913331558806,2025-09-28 19h22.52.337261 +0530,
107,0,107,"[np.float64(-0.24444444444444444), np.float64(-0.2916666666666667)]","[np.float64(-0.30972222222222223), np.float64(-0.30277777777777776)]","[1, 1]","[0, 0]","[0, 0]","[1.834033500010264, 2.35028133400192]","[None, 'target']",107,0,107,0,179.49345291600912,,10,179.48413000001165,179.49345291600912,179.49345291600912,0.01619679199939128,181.8344589160115,"[np.float64(-0.24444444444444444), np.float64(-0.2916666666666667)]","[np.float64(-0.30972222222222223), np.float64(-0.30277777777777776)]","[1, 1]","[0, 0]","[0, 0]","[1.834033500010264, 2.35028133400192]","[None, 'target']",shrey,001,2025-09-28_19h22.44.240,visual search task 1,,2025.1.1,120.34913331558806,2025-09-28 19h22.52.337261 +0530,
108,0,108,[np.float64(0.2708333333333333)],[np.float64(-0.45416666666666666)],[1],[0],[0],[3.102033624993055],['target'],108,0,108,0,181.8592684160103,,10,181.8498137500137,181.8592684160103,181.8592684160103,0.015219250009977259,184.95190395800455,[np.float64(0.2708333333333333)],[np.float64(-0.45416666666666666)],[1],[0],[0],[3.102033624993055],['target'],shrey,001,2025-09-28_19h22.44.240,visual search task 1,,2025.1.1,120.34913331558806,2025-09-28 19h22.52.337261 +0530,
109,0,109,[np.float64(-0.15138888888888888)],[np.float64(0.009722222222222222)],[1],[0],[0],[1.2683404170093127],['target'],109,0,109,0,184.97570529101358,,10,184.96631775000424,184.97570529101358,184.97570529101358,0.014299791000667028,186.23471250000875,[np.float64(-0.15138888888888888)],[np.float64(0.009722222222222222)],[1],[0],[0],[1.2683404170093127],['target'],shrey,001,2025-09-28_19h22.44.240,visual search task 1,,2025.1.1,120.34913331558806,2025-09-28 19h22.52.337261 +0530,
110,0,110,[np.float64(0.17222222222222222)],[np.float64(-0.13194444444444445)],[1],[0],[0],[0.8093780419876566],['target'],110,0,110,0,186.25075087501318,,5,186.24278320801386,186.25075087501318,186.25075087501318,0.00797229100135155,187.05220433301292,[np.float64(0.17222222222222222)],[np.float64(-0.13194444444444445)],[1],[0],[0],[0.8093780419876566],['target'],shrey,001,2025-09-28_19h22.44.240,visual search task 1,,2025.1.1,120.34913331558806,2025-09-28 19h22.52.337261 +0530,
111,0,111,[np.float64(0.34305555555555556)],[np.float64(0.2513888888888889)],[1],[0],[0],[0.9740847079956438],['target'],111,0,111,0,187.0688052080077,,5,187.06123237501015,187.0688052080077,187.0688052080077,0.008923625005991198,188.03539137500047,[np.float64(0.34305555555555556)],[np.float64(0.2513888888888889)],[1],[0],[0],[0.9740847079956438],['target'],shrey,001,2025-09-28_19h22.44.240,visual search task 1,,2025.1.1,120.34913331558806,2025-09-28 19h22.52.337261 +0530,
112,0,112,[np.float64(0.3638888888888889)],[np.float64(0.13194444444444445)],[1],[0],[0],[2.0958421249961248],['target'],112,0,112,0,188.06917704100488,,10,188.05732816600357,188.06917704100488,188.06917704100488,0.021802957999170758,190.15321045801102,[np.float64(0.3638888888888889)],[np.float64(0.13194444444444445)],[1],[0],[0],[2.0958421249961248],['target'],shrey,001,2025-09-28_19h22.44.240,visual search task 1,,2025.1.1,120.34913331558806,2025-09-28 19h22.52.337261 +0530,
113,0,113,[np.float64(-0.275)],[np.float64(-0.39166666666666666)],[1],[0],[0],[0.9744237919949228],['target'],113,0,113,0,190.1687391250016,,5,190.16092379100155,190.1687391250016,190.1687391250016,0.007631250002305023,191.13539004100312,[np.float64(-0.275)],[np.float64(-0.39166666666666666)],[1],[0],[0],[0.9744237919949228],['target'],shrey,001,2025-09-28_19h22.44.240,visual search task 1,,2025.1.1,120.34913331558806,2025-09-28 19h22.52.337261 +0530,
114,0,114,[np.float64(-0.10694444444444444)],[np.float64(-0.2152777777777778)],[1],[0],[0],[0.9976326670002891],['target'],114,0,114,0,191.16389012501168,,10,191.1537733330042,191.16389012501168,191.16389012501168,0.01825908399769105,192.15144566600793,[np.float64(-0.10694444444444444)],[np.float64(-0.2152777777777778)],[1],[0],[0],[0.9976326670002891],['target'],shrey,001,2025-09-28_19h22.44.240,visual search task 1,,2025.1.1,120.34913331558806,2025-09-28 19h22.52.337261 +0530,
115,0,115,[np.float64(-0.11666666666666667)],[np.float64(-0.025)],[1],[0],[0],[0.8422526659996947],['target'],115,0,115,0,192.1663393330091,,5,192.1594366250065,192.1663393330091,192.1663393330091,0.007884042002842762,193.00175658300577,[np.float64(-0.11666666666666667)],[np.float64(-0.025)],[1],[0],[0],[0.8422526659996947],['target'],shrey,001,2025-09-28_19h22.44.240,visual search task 1,,2025.1.1,120.34913331558806,2025-09-28 19h22.52.337261 +0530,
116,0,116,[np.float64(-0.02361111111111111)],[np.float64(-0.12222222222222222)],[1],[0],[0],[0.6900922089989763],['target'],116,0,116,0,193.01883533300133,,5,193.01162908300466,193.01883533300133,193.01883533300133,0.009758667001733556,193.70178162500088,[np.float64(-0.02361111111111111)],[np.float64(-0.12222222222222222)],[1],[0],[0],[0.6900922089989763],['target'],shrey,001,2025-09-28_19h22.44.240,visual search task 1,,2025.1.1,120.34913331558806,2025-09-28 19h22.52.337261 +0530,
117,0,117,[np.float64(0.0763888888888889)],[np.float64(-0.44305555555555554)],[1],[0],[0],[2.574099124991335],['target'],117,0,117,0,193.7192005830002,,5,193.7113110410137,193.7192005830002,193.7192005830002,0.009415082997293212,196.28546875000757,[np.float64(0.0763888888888889)],[np.float64(-0.44305555555555554)],[1],[0],[0],[2.574099124991335],['target'],shrey,001,2025-09-28_19h22.44.240,visual search task 1,,2025.1.1,120.34913331558806,2025-09-28 19h22.52.337261 +0530,
118,0,118,[np.float64(0.5055555555555555)],[np.float64(0.10694444444444444)],[1],[0],[0],[1.306136917002732],['target'],118,0,118,0,196.30426741600968,,5,196.29602075000003,196.30426741600968,196.30426741600968,0.010437500008265488,197.60222070800955,[np.float64(0.5055555555555555)],[np.float64(0.10694444444444444)],[1],[0],[0],[1.306136917002732],['target'],shrey,001,2025-09-28_19h22.44.240,visual search task 1,,2025.1.1,120.34913331558806,2025-09-28 19h22.52.337261 +0530,
119,0,119,[np.float64(-0.33194444444444443)],[np.float64(-0.19166666666666668)],[1],[0],[0],[1.413448999999673],['target'],119,0,119,0,197.63162362501316,,10,197.6213105830102,197.63162362501316,197.63162362501316,0.018967042007716373,199.0348073750065,[np.float64(-0.33194444444444443)],[np.float64(-0.19166666666666668)],[1],[0],[0],[1.413448999999673],['target'],shrey,001,2025-09-28_19h22.44.240,visual search task 1,,2025.1.1,120.34913331558806,2025-09-28 19h22.52.337261 +0530,
120,0,120,[np.float64(0.44166666666666665)],[np.float64(-0.3194444444444444)],[1],[0],[0],[2.042000999994343],['target'],120,0,120,0,199.05171341600362,,5,199.0440140000137,199.05171341600362,199.05171341600362,0.009091125000850298,201.08608054100478,[np.float64(0.44166666666666665)],[np.float64(-0.3194444444444444)],[1],[0],[0],[2.042000999994343],['target'],shrey,001,2025-09-28_19h22.44.240,visual search task 1,,2025.1.1,120.34913331558806,2025-09-28 19h22.52.337261 +0530,
121,0,121,[np.float64(0.06944444444444445)],[np.float64(-0.43194444444444446)],[0],[0],[1],[1.3298694580007577],['target'],121,0,121,0,201.1079821660096,,5,201.09829095800524,201.1079821660096,201.1079821660096,0.01209766700048931,202.42821600000025,[np.float64(0.06944444444444445)],[np.float64(-0.43194444444444446)],[0],[0],[1],[1.3298694580007577],['target'],shrey,001,2025-09-28_19h22.44.240,visual search task 1,,2025.1.1,120.34913331558806,2025-09-28 19h22.52.337261 +0530,
122,0,122,"[np.float64(-0.31805555555555554), np.float64(-0.35694444444444445)]","[np.float64(0.1361111111111111), np.float64(0.12916666666666668)]","[1, 1]","[0, 0]","[0, 0]","[1.5138114169967594, 2.080492334003793]","[None, 'target']",122,0,122,0,202.44593720800185,,5,202.43827108301048,202.44593720800185,202.44593720800185,0.009932625005603768,204.51883704100328,"[np.float64(-0.31805555555555554), np.float64(-0.35694444444444445)]","[np.float64(0.1361111111111111), np.float64(0.12916666666666668)]","[1, 1]","[0, 0]","[0, 0]","[1.5138114169967594, 2.080492334003793]","[None, 'target']",shrey,001,2025-09-28_19h22.44.240,visual search task 1,,2025.1.1,120.34913331558806,2025-09-28 19h22.52.337261 +0530,
123,0,123,"[np.float64(-0.25972222222222224), np.float64(-0.25277777777777777), np.float64(-0.25277777777777777), np.float64(-0.1986111111111111)]","[np.float64(-0.10972222222222222), np.float64(-0.10972222222222222), np.float64(-0.10972222222222222), np.float64(-0.11805555555555555)]","[1, 1, 1, 1]","[0, 0, 0, 0]","[0, 0, 0, 0]","[1.2897639169968897, 1.638934499991592, 2.132376208988717, 2.523507083998993]","[None, None, None, 'target']",123,0,123,0,204.53803320800944,,5,204.5297188750119,204.53803320800944,204.53803320800944,0.010723665996920317,207.0532796660118,"[np.float64(-0.25972222222222224), np.float64(-0.25277777777777777), np.float64(-0.25277777777777777), np.float64(-0.1986111111111111)]","[np.float64(-0.10972222222222222), np.float64(-0.10972222222222222), np.float64(-0.10972222222222222), np.float64(-0.11805555555555555)]","[1, 1, 1, 1]","[0, 0, 0, 0]","[0, 0, 0, 0]","[1.2897639169968897, 1.638934499991592, 2.132376208988717, 2.523507083998993]","[None, None, None, 'target']",shrey,001,2025-09-28_19h22.44.240,visual search task 1,,2025.1.1,120.34913331558806,2025-09-28 19h22.52.337261 +0530,
124,0,124,[np.float64(0.06527777777777778)],[np.float64(-0.3458333333333333)],[1],[0],[0],[1.3219408339937218],['target'],124,0,124,0,207.07205470801273,,5,207.0636060830002,207.07205470801273,207.07205470801273,0.010159249999560416,208.38560304100974,[np.float64(0.06527777777777778)],[np.float64(-0.3458333333333333)],[1],[0],[0],[1.3219408339937218],['target'],shrey,001,2025-09-28_19h22.44.240,visual search task 1,,2025.1.1,120.34913331558806,2025-09-28 19h22.52.337261 +0530,
125,0,125,[np.float64(0.11666666666666667)],[np.float64(0.4527777777777778)],[1],[0],[0],[1.3982191249961033],['target'],125,0,125,0,208.41453779100266,,10,208.4040160000004,208.41453779100266,208.41453779100266,0.018299917006515898,209.80227875000855,[np.float64(0.11666666666666667)],[np.float64(0.4527777777777778)],[1],[0],[0],[1.3982191249961033],['target'],shrey,001,2025-09-28_19h22.44.240,visual search task 1,,2025.1.1,120.34913331558806,2025-09-28 19h22.52.337261 +0530,
126,0,126,[np.float64(0.4083333333333333)],[np.float64(-0.03333333333333333)],[1],[0],[0],[1.7696284159901552],['target'],126,0,126,0,209.82580625000992,,10,209.8169419580081,209.82580625000992,209.82580625000992,0.014553417000570334,211.5866208330117,[np.float64(0.4083333333333333)],[np.float64(-0.03333333333333333)],[1],[0],[0],[1.7696284159901552],['target'],shrey,001,2025-09-28_19h22.44.240,visual search task 1,,2025.1.1,120.34913331558806,2025-09-28 19h22.52.337261 +0530,
127,0,127,[np.float64(0.2986111111111111)],[np.float64(-0.39305555555555555)],[1],[0],[0],[1.4063122910010861],['target'],127,0,127,0,211.60448454100697,,5,211.5964397080097,211.60448454100697,211.60448454100697,0.009687792000477202,213.0028043330094,[np.float64(0.2986111111111111)],[np.float64(-0.39305555555555555)],[1],[0],[0],[1.4063122910010861],['target'],shrey,001,2025-09-28_19h22.44.240,visual search task 1,,2025.1.1,120.34913331558806,2025-09-28 19h22.52.337261 +0530,
128,0,128,[np.float64(0.1597222222222222)],[np.float64(-0.12916666666666668)],[1],[0],[0],[0.9211270420055371],['target'],128,0,128,0,213.0243041660142,,10,213.01505516600446,213.0243041660142,213.0243041660142,0.012177333002910018,213.93623262501205,[np.float64(0.1597222222222222)],[np.float64(-0.12916666666666668)],[1],[0],[0],[0.9211270420055371],['target'],shrey,001,2025-09-28_19h22.44.240,visual search task 1,,2025.1.1,120.34913331558806,2025-09-28 19h22.52.337261 +0530,
129,0,129,[np.float64(-0.17222222222222222)],[np.float64(-0.4930555555555556)],[1],[0],[0],[1.4436551249964396],['target'],129,0,129,0,213.9528519160085,,5,213.94315387500683,213.9528519160085,213.9528519160085,0.006833332998212427,215.3868868330028,[np.float64(-0.17222222222222222)],[np.float64(-0.4930555555555556)],[1],[0],[0],[1.4436551249964396],['target'],shrey,001,2025-09-28_19h22.44.240,visual search task 1,,2025.1.1,120.34913331558806,2025-09-28 19h22.52.337261 +0530,
130,0,130,[np.float64(0.30277777777777776)],[np.float64(0.19722222222222222)],[1],[0],[0],[1.3010871249862248],['target'],130,0,130,0,215.4115485830116,,5,215.4013329580048,215.4115485830116,215.4115485830116,0.014293542000814341,216.70247416601342,[np.float64(0.30277777777777776)],[np.float64(0.19722222222222222)],[1],[0],[0],[1.3010871249862248],['target'],shrey,001,2025-09-28_19h22.44.240,visual search task 1,,2025.1.1,120.34913331558806,2025-09-28 19h22.52.337261 +0530,
131,0,131,[np.float64(0.06666666666666667)],[np.float64(-0.1625)],[1],[0],[0],[0.690644667003653],['target'],131,0,131,0,216.72043308301363,,5,216.71237537500565,216.72043308301363,216.72043308301363,0.009788958996068686,217.4030730830127,[np.float64(0.06666666666666667)],[np.float64(-0.1625)],[1],[0],[0],[0.690644667003653],['target'],shrey,001,2025-09-28_19h22.44.240,visual search task 1,,2025.1.1,120.34913331558806,2025-09-28 19h22.52.337261 +0530,
132,0,132,"[np.float64(-0.16666666666666666), np.float64(-0.18888888888888888)]","[np.float64(0.3125), np.float64(0.3416666666666667)]","[1, 1]","[0, 0]","[0, 0]","[0.9558734169986565, 1.4728689170005964]","[None, 'target']",132,0,132,0,217.42144462501165,,5,217.4134036660107,217.42144462501165,217.42144462501165,0.010216583003057167,218.8863417080138,"[np.float64(-0.16666666666666666), np.float64(-0.18888888888888888)]","[np.float64(0.3125), np.float64(0.3416666666666667)]","[1, 1]","[0, 0]","[0, 0]","[0.9558734169986565, 1.4728689170005964]","[None, 'target']",shrey,001,2025-09-28_19h22.44.240,visual search task 1,,2025.1.1,120.34913331558806,2025-09-28 19h22.52.337261 +0530,
133,0,133,[np.float64(0.37916666666666665)],[np.float64(-0.03611111111111111)],[1],[0],[0],[0.879615833007847],['target'],133,0,133,0,218.91655554099998,,10,218.90611687500495,218.91655554099998,218.91655554099998,0.019586458991398104,219.78577825000684,[np.float64(0.37916666666666665)],[np.float64(-0.03611111111111111)],[1],[0],[0],[0.879615833007847],['target'],shrey,001,2025-09-28_19h22.44.240,visual search task 1,,2025.1.1,120.34913331558806,2025-09-28 19h22.52.337261 +0530,
134,0,134,[np.float64(-0.2791666666666667)],[np.float64(0.4111111111111111)],[1],[0],[0],[3.252363792009419],['target'],134,0,134,0,219.80989566601056,,10,219.80064170800324,219.80989566601056,219.80989566601056,0.01475133300118614,223.0530475830019,[np.float64(-0.2791666666666667)],[np.float64(0.4111111111111111)],[1],[0],[0],[3.252363792009419],['target'],shrey,001,2025-09-28_19h22.44.240,visual search task 1,,2025.1.1,120.34913331558806,2025-09-28 19h22.52.337261 +0530,
135,0,135,[np.float64(-0.0625)],[np.float64(0.48333333333333334)],[1],[0],[0],[1.8086486669926671],['target'],135,0,135,0,223.06805183300457,,5,223.06104979100928,223.06805183300457,223.06805183300457,0.007890207998570986,224.86976966600923,[np.float64(-0.0625)],[np.float64(0.48333333333333334)],[1],[0],[0],[1.8086486669926671],['target'],shrey,001,2025-09-28_19h22.44.240,visual search task 1,,2025.1.1,120.34913331558806,2025-09-28 19h22.52.337261 +0530,
136,0,136,[np.float64(-0.39444444444444443)],[np.float64(-0.21944444444444444)],[1],[0],[0],[1.0731953340000473],['target'],136,0,136,0,224.88770970801124,,5,224.87987866600452,224.88770970801124,224.88770970801124,0.009980917006032541,225.95313883300696,[np.float64(-0.39444444444444443)],[np.float64(-0.21944444444444444)],[1],[0],[0],[1.0731953340000473],['target'],shrey,001,2025-09-28_19h22.44.240,visual search task 1,,2025.1.1,120.34913331558806,2025-09-28 19h22.52.337261 +0530,
137,0,137,[np.float64(-0.4166666666666667)],[np.float64(-0.3736111111111111)],[1],[0],[0],[1.272213374992134],['target'],137,0,137,0,225.97346166601346,,5,225.96469945801073,225.97346166601346,225.97346166601346,0.011432790997787379,227.23698333300126,[np.float64(-0.4166666666666667)],[np.float64(-0.3736111111111111)],[1],[0],[0],[1.272213374992134],['target'],shrey,001,2025-09-28_19h22.44.240,visual search task 1,,2025.1.1,120.34913331558806,2025-09-28 19h22.52.337261 +0530,
138,0,138,[np.float64(-0.058333333333333334)],[np.float64(-0.4666666666666667)],[1],[0],[0],[6.831667249993188],['target'],138,0,138,0,227.2659948750079,,10,227.2552369160112,227.2659948750079,227.2659948750079,0.018146415997762233,234.08699250000063,[np.float64(-0.058333333333333334)],[np.float64(-0.4666666666666667)],[1],[0],[0],[6.831667249993188],['target'],shrey,001,2025-09-28_19h22.44.240,visual search task 1,,2025.1.1,120.34913331558806,2025-09-28 19h22.52.337261 +0530,
139,0,139,[np.float64(0.2875)],[np.float64(-0.006944444444444444)],[1],[0],[0],[3.430215166998096],['target'],139,0,139,0,234.11636495801213,,10,234.10597429100017,234.11636495801213,234.11636495801213,0.01873433298896998,237.53623341600178,[np.float64(0.2875)],[np.float64(-0.006944444444444444)],[1],[0],[0],[3.430215166998096],['target'],shrey,001,2025-09-28_19h22.44.240,visual search task 1,,2025.1.1,120.34913331558806,2025-09-28 19h22.52.337261 +0530,
140,0,140,[np.float64(0.4930555555555556)],[np.float64(0.3638888888888889)],[1],[0],[0],[1.1431057500012685],['target'],140,0,140,0,237.55063579100533,,5,237.5439613750059,237.55063579100533,237.55063579100533,0.007617665993166156,238.6871267910028,[np.float64(0.4930555555555556)],[np.float64(0.3638888888888889)],[1],[0],[0],[1.1431057500012685],['target'],shrey,001,2025-09-28_19h22.44.240,visual search task 1,,2025.1.1,120.34913331558806,2025-09-28 19h22.52.337261 +0530,
141,0,141,[np.float64(0.45555555555555555)],[np.float64(-0.17083333333333334)],[1],[0],[0],[1.4895117499982007],['target'],141,0,141,0,238.70617083300021,,5,238.69781341600174,238.70617083300021,238.70617083300021,0.010582041999441572,240.18737641601183,[np.float64(0.45555555555555555)],[np.float64(-0.17083333333333334)],[1],[0],[0],[1.4895117499982007],['target'],shrey,001,2025-09-28_19h22.44.240,visual search task 1,,2025.1.1,120.34913331558806,2025-09-28 19h22.52.337261 +0530,
142,0,142,[np.float64(0.475)],[np.float64(0.3680555555555556)],[1],[0],[0],[1.5379432499903487],['target'],142,0,142,0,240.2077546250075,,5,240.19874666600663,240.2077546250075,240.2077546250075,0.011242790991673246,241.73673520800367,[np.float64(0.475)],[np.float64(0.3680555555555556)],[1],[0],[0],[1.5379432499903487],['target'],shrey,001,2025-09-28_19h22.44.240,visual search task 1,,2025.1.1,120.34913331558806,2025-09-28 19h22.52.337261 +0530,
143,0,143,[np.float64(-0.08472222222222223)],[np.float64(0.0)],[1],[0],[0],[1.1812440830108244],['target'],143,0,143,0,241.7645949160069,,10,241.75464229100908,241.7645949160069,241.7645949160069,0.017795874999137595,242.93593412500923,[np.float64(-0.08472222222222223)],[np.float64(0.0)],[1],[0],[0],[1.1812440830108244],['target'],shrey,001,2025-09-28_19h22.44.240,visual search task 1,,2025.1.1,120.34913331558806,2025-09-28 19h22.52.337261 +0530,
144,0,144,"[np.float64(0.45694444444444443), np.float64(0.4388888888888889)]","[np.float64(0.32916666666666666), np.float64(0.3277777777777778)]","[1, 1]","[0, 0]","[0, 0]","[3.018653000006452, 3.501256250005099]","[None, 'target']",144,0,144,0,242.96067266601312,,10,242.951350000003,242.96067266601312,242.96067266601312,0.015291999996406958,246.45265508300508,"[np.float64(0.45694444444444443), np.float64(0.4388888888888889)]","[np.float64(0.32916666666666666), np.float64(0.3277777777777778)]","[1, 1]","[0, 0]","[0, 0]","[3.018653000006452, 3.501256250005099]","[None, 'target']",shrey,001,2025-09-28_19h22.44.240,visual search task 1,,2025.1.1,120.34913331558806,2025-09-28 19h22.52.337261 +0530,
145,0,145,[np.float64(-0.18194444444444444)],[np.float64(0.020833333333333332)],[1],[0],[0],[1.0189379579969682],['target'],145,0,145,0,246.47767670800386,,10,246.46825337500195,246.47767670800386,246.47767670800386,0.01547437500266824,247.4872425830108,[np.float64(-0.18194444444444444)],[np.float64(0.020833333333333332)],[1],[0],[0],[1.0189379579969682],['target'],shrey,001,2025-09-28_19h22.44.240,visual search task 1,,2025.1.1,120.34913331558806,2025-09-28 19h22.52.337261 +0530,
146,0,146,[np.float64(0.21666666666666667)],[np.float64(0.4083333333333333)],[1],[0],[0],[1.6004499580012634],['target'],146,0,146,0,247.51157537501422,,10,247.5024132910039,247.51157537501422,247.51157537501422,0.015053167007863522,249.1028929160093,[np.float64(0.21666666666666667)],[np.float64(0.4083333333333333)],[1],[0],[0],[1.6004499580012634],['target'],shrey,001,2025-09-28_19h22.44.240,visual search task 1,,2025.1.1,120.34913331558806,2025-09-28 19h22.52.337261 +0530,
147,0,147,[np.float64(-0.3416666666666667)],[np.float64(-0.4222222222222222)],[1],[0],[0],[2.5349820830015233],['target'],147,0,147,0,249.1266465830122,,10,249.11772100000235,249.1266465830122,249.1266465830122,0.014717458005179651,251.6527438750054,[np.float64(-0.3416666666666667)],[np.float64(-0.4222222222222222)],[1],[0],[0],[2.5349820830015233],['target'],shrey,001,2025-09-28_19h22.44.240,visual search task 1,,2025.1.1,120.34913331558806,2025-09-28 19h22.52.337261 +0530,
148,0,148,[np.float64(-0.20833333333333334)],[np.float64(0.125)],[1],[0],[0],[1.4928704580088379],['target'],148,0,148,0,251.6674415000016,,5,251.66068866600108,251.6674415000016,251.6674415000016,0.00783808299456723,253.15363283301122,[np.float64(-0.20833333333333334)],[np.float64(0.125)],[1],[0],[0],[1.4928704580088379],['target'],shrey,001,2025-09-28_19h22.44.240,visual search task 1,,2025.1.1,120.34913331558806,2025-09-28 19h22.52.337261 +0530,
149,0,149,"[np.float64(0.058333333333333334), np.float64(0.058333333333333334), np.float64(0.08194444444444444), np.float64(0.08194444444444444), np.float64(0.08194444444444444), np.float64(0.025), np.float64(0.009722222222222222), np.float64(0.008333333333333333), np.float64(-0.008333333333333333), np.float64(0.19722222222222222)]","[np.float64(-0.030555555555555555), np.float64(-0.030555555555555555), np.float64(-0.030555555555555555), np.float64(-0.030555555555555555), np.float64(-0.030555555555555555), np.float64(0.005555555555555556), np.float64(0.022222222222222223), np.float64(0.025), np.float64(0.04722222222222222), np.float64(0.46805555555555556)]","[1, 1, 1, 1, 1, 1, 1, 1, 1, 1]","[0, 0, 0, 0, 0, 0, 0, 0, 0, 0]","[0, 0, 0, 0, 0, 0, 0, 0, 0, 0]","[2.31410791700182, 2.7804557920026127, 3.2312888330052374, 3.6638214999984484, 4.03057987500506, 6.047932875007973, 6.414235292002559, 6.71488075000525, 7.064123792006285, 7.880912667009397]","[None, None, None, None, None, None, None, None, None, 'target']",149,0,149,0,253.18219075001252,,10,253.17217337500188,253.18219075001252,253.18219075001252,0.0184112919960171,261.053133333,"[np.float64(0.058333333333333334), np.float64(0.058333333333333334), np.float64(0.08194444444444444), np.float64(0.08194444444444444), np.float64(0.08194444444444444), np.float64(0.025), np.float64(0.009722222222222222), np.float64(0.008333333333333333), np.float64(-0.008333333333333333), np.float64(0.19722222222222222)]","[np.float64(-0.030555555555555555), np.float64(-0.030555555555555555), np.float64(-0.030555555555555555), np.float64(-0.030555555555555555), np.float64(-0.030555555555555555), np.float64(0.005555555555555556), np.float64(0.022222222222222223), np.float64(0.025), np.float64(0.04722222222222222), np.float64(0.46805555555555556)]","[1, 1, 1, 1, 1, 1, 1, 1, 1, 1]","[0, 0, 0, 0, 0, 0, 0, 0, 0, 0]","[0, 0, 0, 0, 0, 0, 0, 0, 0, 0]","[2.31410791700182, 2.7804557920026127, 3.2312888330052374, 3.6638214999984484, 4.03057987500506, 6.047932875007973, 6.414235292002559, 6.71488075000525, 7.064123792006285, 7.880912667009397]","[None, None, None, None, None, None, None, None, None, 'target']",shrey,001,2025-09-28_19h22.44.240,visual search task 1,,2025.1.1,120.34913331558806,2025-09-28 19h22.52.337261 +0530,
150,0,150,[np.float64(0.15138888888888888)],[np.float64(-0.22083333333333333)],[1],[0],[0],[1.9528558750025695],['target'],150,0,150,0,261.0766943330091,,10,261.06768266600557,261.0766943330091,261.0766943330091,0.014319333000457846,263.0205968750088,[np.float64(0.15138888888888888)],[np.float64(-0.22083333333333333)],[1],[0],[0],[1.9528558750025695],['target'],shrey,001,2025-09-28_19h22.44.240,visual search task 1,,2025.1.1,120.34913331558806,2025-09-28 19h22.52.337261 +0530,
151,0,151,[np.float64(0.34444444444444444)],[np.float64(0.058333333333333334)],[1],[0],[0],[0.9070272910030326],['target'],151,0,151,0,263.03643466600624,,5,263.02915645801113,263.03643466600624,263.03643466600624,0.008434582996414974,263.9362272910075,[np.float64(0.34444444444444444)],[np.float64(0.058333333333333334)],[1],[0],[0],[0.9070272910030326],['target'],shrey,001,2025-09-28_19h22.44.240,visual search task 1,,2025.1.1,120.34913331558806,2025-09-28 19h22.52.337261 +0530,
152,0,152,[np.float64(-0.08194444444444444)],[np.float64(-0.4305555555555556)],[1],[0],[0],[1.111000624994631],['target'],152,0,152,0,263.9498159160139,,5,263.94280570800765,263.9498159160139,263.9498159160139,0.006508791004307568,265.05386720800016,[np.float64(-0.08194444444444444)],[np.float64(-0.4305555555555556)],[1],[0],[0],[1.111000624994631],['target'],shrey,001,2025-09-28_19h22.44.240,visual search task 1,,2025.1.1,120.34913331558806,2025-09-28 19h22.52.337261 +0530,
153,0,153,[np.float64(-0.2125)],[np.float64(0.4305555555555556)],[1],[0],[0],[1.207526708007208],['target'],153,0,153,0,265.0716183330078,,5,265.0636391250009,265.0716183330078,265.0716183330078,0.00965983301284723,266.27123795800435,[np.float64(-0.2125)],[np.float64(0.4305555555555556)],[1],[0],[0],[1.207526708007208],['target'],shrey,001,2025-09-28_19h22.44.240,visual search task 1,,2025.1.1,120.34913331558806,2025-09-28 19h22.52.337261 +0530,
154,0,154,[np.float64(0.46805555555555556)],[np.float64(0.30833333333333335)],[1],[0],[0],[1.6788877920043888],['target'],154,0,154,0,266.30279754100775,,10,266.292295791005,266.30279754100775,266.30279754100775,0.020934667001711205,267.9712206660042,[np.float64(0.46805555555555556)],[np.float64(0.30833333333333335)],[1],[0],[0],[1.6788877920043888],['target'],shrey,001,2025-09-28_19h22.44.240,visual search task 1,,2025.1.1,120.34913331558806,2025-09-28 19h22.52.337261 +0530,
155,0,155,[np.float64(0.18888888888888888)],[np.float64(-0.3763888888888889)],[1],[0],[0],[1.6247527920058928],['target'],155,0,155,0,267.9862372910138,,5,267.9790442910016,267.9862372910138,267.9862372910138,0.0077129999990575016,269.60385579100694,[np.float64(0.18888888888888888)],[np.float64(-0.3763888888888889)],[1],[0],[0],[1.6247527920058928],['target'],shrey,001,2025-09-28_19h22.44.240,visual search task 1,,2025.1.1,120.34913331558806,2025-09-28 19h22.52.337261 +0530,
156,0,156,[np.float64(-0.3194444444444444)],[np.float64(-0.34305555555555556)],[1],[0],[0],[1.2897598339914111],['target'],156,0,156,0,269.622323625008,,5,269.61450879101176,269.622323625008,269.622323625008,0.010542916992562823,270.904328833014,[np.float64(-0.3194444444444444)],[np.float64(-0.34305555555555556)],[1],[0],[0],[1.2897598339914111],['target'],shrey,001,2025-09-28_19h22.44.240,visual search task 1,,2025.1.1,120.34913331558806,2025-09-28 19h22.52.337261 +0530,
157,0,157,[np.float64(0.16527777777777777)],[np.float64(-0.19583333333333333)],[1],[0],[0],[3.147354417000315],['target'],157,0,157,0,270.93364675001067,,10,270.92313766600273,270.93364675001067,270.93364675001067,0.018696667000767775,274.0705363750021,[np.float64(0.16527777777777777)],[np.float64(-0.19583333333333333)],[1],[0],[0],[3.147354417000315],['target'],shrey,001,2025-09-28_19h22.44.240,visual search task 1,,2025.1.1,120.34913331558806,2025-09-28 19h22.52.337261 +0530,
158,0,158,[np.float64(0.09305555555555556)],[np.float64(-0.45416666666666666)],[1],[0],[0],[3.268533334005042],['target'],158,0,158,0,274.094636875001,,10,274.08535770801245,274.094636875001,274.094636875001,0.01469208300113678,277.35393904100056,[np.float64(0.09305555555555556)],[np.float64(-0.45416666666666666)],[1],[0],[0],[3.268533334005042],['target'],shrey,001,2025-09-28_19h22.44.240,visual search task 1,,2025.1.1,120.34913331558806,2025-09-28 19h22.52.337261 +0530,
159,0,159,[np.float64(0.46805555555555556)],[np.float64(-0.027777777777777776)],[1],[0],[0],[1.1696678750013234],['target'],159,0,159,0,277.3780599160091,,10,277.36907412500295,277.3780599160091,277.3780599160091,0.015028167006676085,278.53882425000484,[np.float64(0.46805555555555556)],[np.float64(-0.027777777777777776)],[1],[0],[0],[1.1696678750013234],['target'],shrey,001,2025-09-28_19h22.44.240,visual search task 1,,2025.1.1,120.34913331558806,2025-09-28 19h22.52.337261 +0530,
160,0,160,[np.float64(0.20277777777777778)],[np.float64(0.45416666666666666)],[1],[0],[0],[2.0665236670029117],['target'],160,0,160,0,278.56442483300634,,10,278.5549575830082,278.56442483300634,278.56442483300634,0.01600858299934771,280.6215210000082,[np.float64(0.20277777777777778)],[np.float64(0.45416666666666666)],[1],[0],[0],[2.0665236670029117],['target'],shrey,001,2025-09-28_19h22.44.240,visual search task 1,,2025.1.1,120.34913331558806,2025-09-28 19h22.52.337261 +0530,
161,0,161,[np.float64(0.06527777777777778)],[np.float64(-0.30416666666666664)],[1],[0],[0],[1.4921379999868805],['target'],161,0,161,0,280.63597041601315,,5,280.6292988750065,280.63597041601315,280.63597041601315,0.007668374993954785,282.12150291600847,[np.float64(0.06527777777777778)],[np.float64(-0.30416666666666664)],[1],[0],[0],[1.4921379999868805],['target'],shrey,001,2025-09-28_19h22.44.240,visual search task 1,,2025.1.1,120.34913331558806,2025-09-28 19h22.52.337261 +0530,
162,0,162,[np.float64(0.43333333333333335)],[np.float64(-0.041666666666666664)],[1],[0],[0],[1.3389746670000022],['target'],162,0,162,0,282.14078000000154,,5,282.13224125000124,282.14078000000154,282.14078000000154,0.010620165994623676,283.47128258300654,[np.float64(0.43333333333333335)],[np.float64(-0.041666666666666664)],[1],[0],[0],[1.3389746670000022],['target'],shrey,001,2025-09-28_19h22.44.240,visual search task 1,,2025.1.1,120.34913331558806,2025-09-28 19h22.52.337261 +0530,
163,0,163,[np.float64(0.2263888888888889)],[np.float64(-0.3541666666666667)],[1],[0],[0],[1.1888189589953981],['target'],163,0,163,0,283.4912796250137,,5,283.4823889160034,283.4912796250137,283.4912796250137,0.01098866701067891,284.6712578750012,[np.float64(0.2263888888888889)],[np.float64(-0.3541666666666667)],[1],[0],[0],[1.1888189589953981],['target'],shrey,001,2025-09-28_19h22.44.240,visual search task 1,,2025.1.1,120.34913331558806,2025-09-28 19h22.52.337261 +0530,
164,0,164,[np.float64(0.46805555555555556)],[np.float64(-0.011111111111111112)],[1],[0],[0],[0.9480830840038834],['target'],164,0,164,0,284.7002646660112,,10,284.68973695801105,284.7002646660112,284.7002646660112,0.018368167002336122,285.6378692500002,[np.float64(0.46805555555555556)],[np.float64(-0.011111111111111112)],[1],[0],[0],[0.9480830840038834],['target'],shrey,001,2025-09-28_19h22.44.240,visual search task 1,,2025.1.1,120.34913331558806,2025-09-28 19h22.52.337261 +0530,
165,0,165,[np.float64(-0.46944444444444444)],[np.float64(-0.058333333333333334)],[1],[0],[0],[1.3339054170064628],['target'],165,0,165,0,285.6628534580086,,10,285.65367937501287,285.6628534580086,285.6628534580086,0.015693374996772036,286.9876387500117,[np.float64(-0.46944444444444444)],[np.float64(-0.058333333333333334)],[1],[0],[0],[1.3339054170064628],['target'],shrey,001,2025-09-28_19h22.44.240,visual search task 1,,2025.1.1,120.34913331558806,2025-09-28 19h22.52.337261 +0530,
166,0,166,"[np.float64(-0.2569444444444444), np.float64(-0.24444444444444444)]","[np.float64(0.34305555555555556), np.float64(0.3277777777777778)]","[1, 1]","[0, 0]","[0, 0]","[3.15911412499554, 3.509256417004508]","[None, 'target']",166,0,166,0,287.0034133750014,,5,286.9959980410058,287.0034133750014,287.0034133750014,0.008245000004535541,290.5053317500133,"[np.float64(-0.2569444444444444), np.float64(-0.24444444444444444)]","[np.float64(0.34305555555555556), np.float64(0.3277777777777778)]","[1, 1]","[0, 0]","[0, 0]","[3.15911412499554, 3.509256417004508]","[None, 'target']",shrey,001,2025-09-28_19h22.44.240,visual search task 1,,2025.1.1,120.34913331558806,2025-09-28 19h22.52.337261 +0530,
167,0,167,[np.float64(-0.43333333333333335)],[np.float64(0.20416666666666666)],[1],[0],[0],[2.9445889170019655],['target'],167,0,167,0,290.53743116601254,,10,290.5260586660006,290.53743116601254,290.53743116601254,0.02057987499574665,293.470682625004,[np.float64(-0.43333333333333335)],[np.float64(0.20416666666666666)],[1],[0],[0],[2.9445889170019655],['target'],shrey,001,2025-09-28_19h22.44.240,visual search task 1,,2025.1.1,120.34913331558806,2025-09-28 19h22.52.337261 +0530,
168,0,168,[np.float64(-0.04027777777777778)],[np.float64(-0.058333333333333334)],[1],[0],[0],[1.2426774579944322],['target'],168,0,168,0,293.4854379160097,,5,293.478880708004,293.4854379160097,293.4854379160097,0.008088832997600548,294.7216256660031,[np.float64(-0.04027777777777778)],[np.float64(-0.058333333333333334)],[1],[0],[0],[1.2426774579944322],['target'],shrey,001,2025-09-28_19h22.44.240,visual search task 1,,2025.1.1,120.34913331558806,2025-09-28 19h22.52.337261 +0530,
169,0,169,[np.float64(-0.37916666666666665)],[np.float64(0.12916666666666668)],[1],[0],[0],[1.0904391660005786],['target'],169,0,169,0,294.7397329580126,,5,294.73185841600935,294.7397329580126,294.7397329580126,0.010118249992956407,295.82235245800985,[np.float64(-0.37916666666666665)],[np.float64(0.12916666666666668)],[1],[0],[0],[1.0904391660005786],['target'],shrey,001,2025-09-28_19h22.44.240,visual search task 1,,2025.1.1,120.34913331558806,2025-09-28 19h22.52.337261 +0530,
170,0,170,[np.float64(-0.015277777777777777)],[np.float64(0.26666666666666666)],[1],[0],[0],[1.380801833991427],['target'],170,0,170,0,295.851033458006,,10,295.8411800000031,295.851033458006,295.851033458006,0.01870095799677074,297.2220233750122,[np.float64(-0.015277777777777777)],[np.float64(0.26666666666666666)],[1],[0],[0],[1.380801833991427],['target'],shrey,001,2025-09-28_19h22.44.240,visual search task 1,,2025.1.1,120.34913331558806,2025-09-28 19h22.52.337261 +0530,
171,0,171,[np.float64(-0.16944444444444445)],[np.float64(0.25416666666666665)],[1],[0],[0],[0.750210625003092],['target'],171,0,171,0,297.24593900000036,,10,297.2370423750108,297.24593900000036,297.24593900000036,0.014913083999999799,297.9872911660059,[np.float64(-0.16944444444444445)],[np.float64(0.25416666666666665)],[1],[0],[0],[0.750210625003092],['target'],shrey,001,2025-09-28_19h22.44.240,visual search task 1,,2025.1.1,120.34913331558806,2025-09-28 19h22.52.337261 +0530,
172,0,172,[np.float64(0.24444444444444444)],[np.float64(-0.07222222222222222)],[1],[0],[0],[1.0186364999972284],['target'],172,0,172,0,298.01123058301164,,10,298.00215737501276,298.01123058301164,298.01123058301164,0.014758332996279933,299.02083720800874,[np.float64(0.24444444444444444)],[np.float64(-0.07222222222222222)],[1],[0],[0],[1.0186364999972284],['target'],shrey,001,2025-09-28_19h22.44.240,visual search task 1,,2025.1.1,120.34913331558806,2025-09-28 19h22.52.337261 +0530,
173,0,173,[np.float64(0.4638888888888889)],[np.float64(0.2708333333333333)],[1],[0],[0],[0.902497624992975],['target'],173,0,173,0,299.04474279101123,,10,299.0354219160072,299.04474279101123,299.04474279101123,0.014475375006441027,299.93797375001304,[np.float64(0.4638888888888889)],[np.float64(0.2708333333333333)],[1],[0],[0],[0.902497624992975],['target'],shrey,001,2025-09-28_19h22.44.240,visual search task 1,,2025.1.1,120.34913331558806,2025-09-28 19h22.52.337261 +0530,
174,0,174,[np.float64(0.3402777777777778)],[np.float64(-0.4513888888888889)],[1],[0],[0],[1.5934327089926228],['target'],174,0,174,0,299.9533863750112,,5,299.9461631660088,299.9533863750112,299.9533863750112,0.008070541996858083,301.5396564160037,[np.float64(0.3402777777777778)],[np.float64(-0.4513888888888889)],[1],[0],[0],[1.5934327089926228],['target'],shrey,001,2025-09-28_19h22.44.240,visual search task 1,,2025.1.1,120.34913331558806,2025-09-28 19h22.52.337261 +0530,
175,0,175,[np.float64(0.06111111111111111)],[np.float64(-0.1388888888888889)],[1],[0],[0],[3.1960754999890924],['target'],175,0,175,0,301.5683646660036,,10,301.55819862500357,301.5683646660036,301.5683646660036,0.01841433299705386,304.7543172500009,[np.float64(0.06111111111111111)],[np.float64(-0.1388888888888889)],[1],[0],[0],[3.1960754999890924],['target'],shrey,001,2025-09-28_19h22.44.240,visual search task 1,,2025.1.1,120.34913331558806,2025-09-28 19h22.52.337261 +0530,
176,0,176,[np.float64(-0.06388888888888888)],[np.float64(-0.4222222222222222)],[1],[0],[0],[1.9254949590103934],['target'],176,0,176,0,304.7698658750014,,5,304.7623777080007,304.7698658750014,304.7698658750014,0.00795345799997449,306.687929000007,[np.float64(-0.06388888888888888)],[np.float64(-0.4222222222222222)],[1],[0],[0],[1.9254949590103934],['target'],shrey,001,2025-09-28_19h22.44.240,visual search task 1,,2025.1.1,120.34913331558806,2025-09-28 19h22.52.337261 +0530,
177,0,177,[np.float64(0.011111111111111112)],[np.float64(-0.2222222222222222)],[1],[0],[0],[2.0178738749964396],['target'],177,0,177,0,306.7133549160062,,10,306.7036738330062,306.7133549160062,306.7133549160062,0.01564591699570883,308.72159654101415,[np.float64(0.011111111111111112)],[np.float64(-0.2222222222222222)],[1],[0],[0],[2.0178738749964396],['target'],shrey,001,2025-09-28_19h22.44.240,visual search task 1,,2025.1.1,120.34913331558806,2025-09-28 19h22.52.337261 +0530,
178,0,178,"[np.float64(0.03194444444444444), np.float64(0.0125)]","[np.float64(0.1361111111111111), np.float64(0.14027777777777778)]","[1, 1]","[0, 0]","[0, 0]","[0.9263044590043137, 1.342181874992093]","[None, 'target']",178,0,178,0,308.737030083008,,5,308.7301569160045,308.737030083008,308.737030083008,0.008441041994956322,310.07241841600626,"[np.float64(0.03194444444444444), np.float64(0.0125)]","[np.float64(0.1361111111111111), np.float64(0.14027777777777778)]","[1, 1]","[0, 0]","[0, 0]","[0.9263044590043137, 1.342181874992093]","[None, 'target']",shrey,001,2025-09-28_19h22.44.240,visual search task 1,,2025.1.1,120.34913331558806,2025-09-28 19h22.52.337261 +0530,
179,0,179,[np.float64(0.4361111111111111)],[np.float64(0.3347222222222222)],[1],[0],[0],[1.094620791991474],['target'],179,0,179,0,310.1043561250117,,10,310.09352500000386,310.1043561250117,310.1043561250117,0.02093141600198578,311.18818366600317,[np.float64(0.4361111111111111)],[np.float64(0.3347222222222222)],[1],[0],[0],[1.094620791991474],['target'],shrey,001,2025-09-28_19h22.44.240,visual search task 1,,2025.1.1,120.34913331558806,2025-09-28 19h22.52.337261 +0530,
180,0,180,[np.float64(-0.28194444444444444)],[np.float64(0.39444444444444443)],[1],[0],[0],[1.8350271249946672],['target'],180,0,180,0,311.2124142500106,,10,311.2032276250102,311.2124142500106,311.2124142500106,0.014937374988221563,313.03830441601167,[np.float64(-0.28194444444444444)],[np.float64(0.39444444444444443)],[1],[0],[0],[1.8350271249946672],['target'],shrey,001,2025-09-28_19h22.44.240,visual search task 1,,2025.1.1,120.34913331558806,2025-09-28 19h22.52.337261 +0530,
181,0,181,[np.float64(0.12777777777777777)],[np.float64(-0.19583333333333333)],[1],[0],[0],[2.333903916995041],['target'],181,0,181,0,313.064780916,,10,313.0547824160021,313.064780916,313.064780916,0.016361541987862438,315.38873554101156,[np.float64(0.12777777777777777)],[np.float64(-0.19583333333333333)],[1],[0],[0],[2.333903916995041],['target'],shrey,001,2025-09-28_19h22.44.240,visual search task 1,,2025.1.1,120.34913331558806,2025-09-28 19h22.52.337261 +0530,
182,0,182,[np.float64(-0.06805555555555555)],[np.float64(-0.125)],[1],[0],[0],[1.5427755410055397],['target'],182,0,182,0,315.40419512501103,,5,315.3970182080084,315.40419512501103,315.40419512501103,0.008172250003553927,316.9398564580042,[np.float64(-0.06805555555555555)],[np.float64(-0.125)],[1],[0],[0],[1.5427755410055397],['target'],shrey,001,2025-09-28_19h22.44.240,visual search task 1,,2025.1.1,120.34913331558806,2025-09-28 19h22.52.337261 +0530,
183,0,183,[np.float64(0.5069444444444444)],[np.float64(-0.24166666666666667)],[1],[0],[0],[1.8958646249957383],['target'],183,0,183,0,316.9695229580102,,10,316.9590997500054,316.9695229580102,316.9695229580102,0.019115499992039986,318.8550032500061,[np.float64(0.5069444444444444)],[np.float64(-0.24166666666666667)],[1],[0],[0],[1.8958646249957383],['target'],shrey,001,2025-09-28_19h22.44.240,visual search task 1,,2025.1.1,120.34913331558806,2025-09-28 19h22.52.337261 +0530,
184,0,184,[np.float64(0.4638888888888889)],[np.float64(0.009722222222222222)],[1],[0],[0],[1.23402120800165],['target'],184,0,184,0,318.8802019160066,,10,318.87075929100683,318.8802019160066,318.8802019160066,0.015631708010914735,320.10482162500557,[np.float64(0.4638888888888889)],[np.float64(0.009722222222222222)],[1],[0],[0],[1.23402120800165],['target'],shrey,001,2025-09-28_19h22.44.240,visual search task 1,,2025.1.1,120.34913331558806,2025-09-28 19h22.52.337261 +0530,
185,0,185,[np.float64(-0.07083333333333333)],[np.float64(0.008333333333333333)],[1],[0],[0],[0.6765899999882095],['target'],185,0,185,0,320.1193604160071,,5,320.11280395800713,320.1193604160071,320.1193604160071,0.00783904199488461,320.789454208003,[np.float64(-0.07083333333333333)],[np.float64(0.008333333333333333)],[1],[0],[0],[0.6765899999882095],['target'],shrey,001,2025-09-28_19h22.44.240,visual search task 1,,2025.1.1,120.34913331558806,2025-09-28 19h22.52.337261 +0530,
186,0,186,[np.float64(0.30833333333333335)],[np.float64(-0.3861111111111111)],[1],[0],[0],[1.5383470829983708],['target'],186,0,186,0,320.81032370800676,,5,320.80073975000414,320.81032370800676,320.81032370800676,0.01115741599642206,322.3391410410113,[np.float64(0.30833333333333335)],[np.float64(-0.3861111111111111)],[1],[0],[0],[1.5383470829983708],['target'],shrey,001,2025-09-28_19h22.44.240,visual search task 1,,2025.1.1,120.34913331558806,2025-09-28 19h22.52.337261 +0530,
187,0,187,[np.float64(0.5097222222222222)],[np.float64(0.4527777777777778)],[1],[0],[0],[1.4884356669936096],['target'],187,0,187,0,322.35984354100947,,5,322.35081900001387,322.35984354100947,322.35984354100947,0.011552583004231565,323.8393086660071,[np.float64(0.5097222222222222)],[np.float64(0.4527777777777778)],[1],[0],[0],[1.4884356669936096],['target'],shrey,001,2025-09-28_19h22.44.240,visual search task 1,,2025.1.1,120.34913331558806,2025-09-28 19h22.52.337261 +0530,
188,0,188,[np.float64(-0.4583333333333333)],[np.float64(0.4777777777777778)],[1],[0],[0],[4.292975208009011],['target'],188,0,188,0,323.86722787500184,,10,323.8568750830018,323.86722787500184,323.86722787500184,0.017455292007070966,328.1499071660073,[np.float64(-0.4583333333333333)],[np.float64(0.4777777777777778)],[1],[0],[0],[4.292975208009011],['target'],shrey,001,2025-09-28_19h22.44.240,visual search task 1,,2025.1.1,120.34913331558806,2025-09-28 19h22.52.337261 +0530,
189,0,189,[np.float64(0.24444444444444444)],[np.float64(0.1125)],[1],[0],[0],[1.3061409579968313],['target'],189,0,189,0,328.1758635830047,,10,328.1664976660104,328.1758635830047,328.1758635830047,0.016449040995212272,329.4726861250092,[np.float64(0.24444444444444444)],[np.float64(0.1125)],[1],[0],[0],[1.3061409579968313],['target'],shrey,001,2025-09-28_19h22.44.240,visual search task 1,,2025.1.1,120.34913331558806,2025-09-28 19h22.52.337261 +0530,
190,0,190,[np.float64(-0.1)],[np.float64(-0.32083333333333336)],[1],[0],[0],[2.309809917001985],['target'],190,0,190,0,329.4884775410028,,5,329.48129229100596,329.4884775410028,329.4884775410028,0.008499540999764577,331.7911667080043,[np.float64(-0.1)],[np.float64(-0.32083333333333336)],[1],[0],[0],[2.309809917001985],['target'],shrey,001,2025-09-28_19h22.44.240,visual search task 1,,2025.1.1,120.34913331558806,2025-09-28 19h22.52.337261 +0530,
191,0,191,[np.float64(0.3958333333333333)],[np.float64(0.23472222222222222)],[1],[0],[0],[1.1708948749874253],['target'],191,0,191,0,331.810081625008,,5,331.80187220800144,331.810081625008,331.810081625008,0.010591124999336898,332.9728325000033,[np.float64(0.3958333333333333)],[np.float64(0.23472222222222222)],[1],[0],[0],[1.1708948749874253],['target'],shrey,001,2025-09-28_19h22.44.240,visual search task 1,,2025.1.1,120.34913331558806,2025-09-28 19h22.52.337261 +0530,
192,0,192,[np.float64(0.19305555555555556)],[np.float64(-0.3472222222222222)],[1],[0],[0],[1.323419666994596],['target'],192,0,192,0,332.99104420799995,,5,332.9830408750131,332.99104420799995,332.99104420799995,0.010084957990329713,334.3065214160015,[np.float64(0.19305555555555556)],[np.float64(-0.3472222222222222)],[1],[0],[0],[1.323419666994596],['target'],shrey,001,2025-09-28_19h22.44.240,visual search task 1,,2025.1.1,120.34913331558806,2025-09-28 19h22.52.337261 +0530,
193,0,193,[np.float64(-0.09305555555555556)],[np.float64(-0.35694444444444445)],[1],[0],[0],[1.1046083330002148],['target'],193,0,193,0,334.32651829101087,,5,334.3174623750092,334.32651829101087,334.32651829101087,0.010815875008120202,335.4221197080042,[np.float64(-0.09305555555555556)],[np.float64(-0.35694444444444445)],[1],[0],[0],[1.1046083330002148],['target'],shrey,001,2025-09-28_19h22.44.240,visual search task 1,,2025.1.1,120.34913331558806,2025-09-28 19h22.52.337261 +0530,
194,0,194,[np.float64(-0.44166666666666665)],[np.float64(0.09722222222222222)],[1],[0],[0],[1.4159028750000289],['target'],194,0,194,0,335.4496139160037,,10,335.43984404100047,335.4496139160037,335.4496139160037,0.017610832990612835,336.8557876660052,[np.float64(-0.44166666666666665)],[np.float64(0.09722222222222222)],[1],[0],[0],[1.4159028750000289],['target'],shrey,001,2025-09-28_19h22.44.240,visual search task 1,,2025.1.1,120.34913331558806,2025-09-28 19h22.52.337261 +0530,
195,0,195,[np.float64(0.015277777777777777)],[np.float64(0.30277777777777776)],[1],[0],[0],[1.168547250010306],['target'],195,0,195,0,336.8798511250061,,10,336.87077566600055,336.8798511250061,336.8798511250061,0.014877583002089523,338.0393711659999,[np.float64(0.015277777777777777)],[np.float64(0.30277777777777776)],[1],[0],[0],[1.168547250010306],['target'],shrey,001,2025-09-28_19h22.44.240,visual search task 1,,2025.1.1,120.34913331558806,2025-09-28 19h22.52.337261 +0530,
196,0,196,[np.float64(-0.10833333333333334)],[np.float64(-0.38055555555555554)],[1],[0],[0],[1.969242082996061],['target'],196,0,196,0,338.06263045800733,,10,338.0534076250042,338.06263045800733,338.06263045800733,0.013934958013123833,340.0227001250023,[np.float64(-0.10833333333333334)],[np.float64(-0.38055555555555554)],[1],[0],[0],[1.969242082996061],['target'],shrey,001,2025-09-28_19h22.44.240,visual search task 1,,2025.1.1,120.34913331558806,2025-09-28 19h22.52.337261 +0530,
197,0,197,[np.float64(0.10138888888888889)],[np.float64(0.30972222222222223)],[1],[0],[0],[1.0028757079999195],['target'],197,0,197,0,340.04638062500453,,10,340.03676500001166,340.04638062500453,340.04638062500453,0.013956333001260646,341.0396898750041,[np.float64(0.10138888888888889)],[np.float64(0.30972222222222223)],[1],[0],[0],[1.0028757079999195],['target'],shrey,001,2025-09-28_19h22.44.240,visual search task 1,,2025.1.1,120.34913331558806,2025-09-28 19h22.52.337261 +0530,
198,0,198,[np.float64(0.33611111111111114)],[np.float64(-0.10277777777777777)],[1],[0],[0],[1.2999154160061153],['target'],198,0,198,0,341.06557329100906,,10,341.0558639580122,341.06557329100906,341.06557329100906,0.01605016599933151,342.3558213330107,[np.float64(0.33611111111111114)],[np.float64(-0.10277777777777777)],[1],[0],[0],[1.2999154160061153],['target'],shrey,001,2025-09-28_19h22.44.240,visual search task 1,,2025.1.1,120.34913331558806,2025-09-28 19h22.52.337261 +0530,
199,0,199,[np.float64(-0.0375)],[np.float64(0.08611111111111111)],[1],[0],[0],[0.9749051669932669],['target'],199,0,199,0,342.37187516600534,,5,342.36454283300554,342.37187516600534,342.37187516600534,0.008599666005466133,343.33951437500946,[np.float64(-0.0375)],[np.float64(0.08611111111111111)],[1],[0],[0],[0.9749051669932669],['target'],shrey,001,2025-09-28_19h22.44.240,visual search task 1,,2025.1.1,120.34913331558806,2025-09-28 19h22.52.337261 +0530,
