thisN,thisTrialN,thisRepN,mouse.x,mouse.y,mouse.leftButton,mouse.midButton,mouse.rightButton,mouse.time,mouse.clicked_name,trials.thisRepN,trials.thisTrialN,trials.thisN,trials.thisIndex,thisRow.t,notes,num_distr,trial.started,fixation.started,target.started,mouse.started,trial.stopped,trials.mouse.x,trials.mouse.y,trials.mouse.leftButton,trials.mouse.midButton,trials.mouse.rightButton,trials.mouse.time,trials.mouse.clicked_name,participant,session,date,expName,expVersion,psychopyVersion,frameRate,expStart,
0,0,0,[np.float64(-0.2763888888888889)],[np.float64(-0.03333333333333333)],[1],[0],[0],[5.296311749996676],['target'],0,0,0,0,0.08655691600142745,,10,0.05007012499845587,0.08655691600142745,0.08655691600142745,0.0500903330030269,5.346467041003052,[np.float64(-0.2763888888888889)],[np.float64(-0.03333333333333333)],[1],[0],[0],[5.296311749996676],['target'],subhangi,001,2025-09-22_21h11.08.667,visual search task 1,,2025.1.1,118.98735902427555,2025-09-22 21h11.17.687255 +0530,
1,0,1,[np.float64(-0.24722222222222223)],[np.float64(-0.42777777777777776)],[1],[0],[0],[2.3267071250011213],['target'],1,0,1,0,5.3764515000002575,,10,5.366138791003323,5.3764515000002575,5.3764515000002575,0.01943537499755621,7.692912083002739,[np.float64(-0.24722222222222223)],[np.float64(-0.42777777777777776)],[1],[0],[0],[2.3267071250011213],['target'],subhangi,001,2025-09-22_21h11.08.667,visual search task 1,,2025.1.1,118.98735902427555,2025-09-22 21h11.17.687255 +0530,
2,0,2,[np.float64(-0.4263888888888889)],[np.float64(0.1875)],[1],[0],[0],[1.4054269999978715],['target'],2,0,2,0,7.711568708000414,,5,7.70356891600386,7.711568708000414,7.711568708000414,0.010502124998311047,9.109080166002968,[np.float64(-0.4263888888888889)],[np.float64(0.1875)],[1],[0],[0],[1.4054269999978715],['target'],subhangi,001,2025-09-22_21h11.08.667,visual search task 1,,2025.1.1,118.98735902427555,2025-09-22 21h11.17.687255 +0530,
3,0,3,[np.float64(0.19305555555555556)],[np.float64(-0.04861111111111111)],[1],[0],[0],[1.4540520000009565],['target'],3,0,3,0,9.13139787500404,,5,9.121915625000838,9.13139787500404,9.13139787500404,0.012677750004513655,10.576057291000325,[np.float64(0.19305555555555556)],[np.float64(-0.04861111111111111)],[1],[0],[0],[1.4540520000009565],['target'],subhangi,001,2025-09-22_21h11.08.667,visual search task 1,,2025.1.1,118.98735902427555,2025-09-22 21h11.17.687255 +0530,
4,0,4,[np.float64(-0.3277777777777778)],[np.float64(0.3333333333333333)],[1],[0],[0],[1.8584742919993005],['target'],4,0,4,0,10.612815915999818,,10,10.600254083001346,10.612815915999818,10.612815915999818,0.02402050000091549,12.458788583004207,[np.float64(-0.3277777777777778)],[np.float64(0.3333333333333333)],[1],[0],[0],[1.8584742919993005],['target'],subhangi,001,2025-09-22_21h11.08.667,visual search task 1,,2025.1.1,118.98735902427555,2025-09-22 21h11.17.687255 +0530,
5,0,5,[np.float64(0.33055555555555555)],[np.float64(-0.37777777777777777)],[1],[0],[0],[2.8073987919997307],['target'],5,0,5,0,12.477979208000761,,5,12.469745583002805,12.477979208000761,12.477979208000761,0.010800124997331295,15.277219540999795,[np.float64(0.33055555555555555)],[np.float64(-0.37777777777777777)],[1],[0],[0],[2.8073987919997307],['target'],subhangi,001,2025-09-22_21h11.08.667,visual search task 1,,2025.1.1,118.98735902427555,2025-09-22 21h11.17.687255 +0530,
6,0,6,[np.float64(-0.3902777777777778)],[np.float64(-0.225)],[1],[0],[0],[3.8234505410000565],['target'],6,0,6,0,15.316478749999078,,10,15.303257500003383,15.316478749999078,15.316478749999078,0.025850666999758687,19.126756416000717,[np.float64(-0.3902777777777778)],[np.float64(-0.225)],[1],[0],[0],[3.8234505410000565],['target'],subhangi,001,2025-09-22_21h11.08.667,visual search task 1,,2025.1.1,118.98735902427555,2025-09-22 21h11.17.687255 +0530,
7,0,7,[np.float64(0.05277777777777778)],[np.float64(0.36527777777777776)],[1],[0],[0],[2.439777125000546],['target'],7,0,7,0,19.145389916004206,,5,19.137405790999765,19.145389916004206,19.145389916004206,0.01050754199968651,21.57727587500267,[np.float64(0.05277777777777778)],[np.float64(0.36527777777777776)],[1],[0],[0],[2.439777125000546],['target'],subhangi,001,2025-09-22_21h11.08.667,visual search task 1,,2025.1.1,118.98735902427555,2025-09-22 21h11.17.687255 +0530,
8,0,8,[np.float64(-0.14444444444444443)],[np.float64(0.22777777777777777)],[1],[0],[0],[1.788445458994829],['target'],8,0,8,0,21.617259915998147,,10,21.604136624999228,21.617259915998147,21.617259915998147,0.026698749999923166,23.39263637499971,[np.float64(-0.14444444444444443)],[np.float64(0.22777777777777777)],[1],[0],[0],[1.788445458994829],['target'],subhangi,001,2025-09-22_21h11.08.667,visual search task 1,,2025.1.1,118.98735902427555,2025-09-22 21h11.17.687255 +0530,
9,0,9,[np.float64(-0.39861111111111114)],[np.float64(0.28055555555555556)],[1],[0],[0],[3.1471935420049704],['target'],9,0,9,0,23.42406679099804,,10,23.413473583001178,23.42406679099804,23.42406679099804,0.020677082997281104,26.56072262499947,[np.float64(-0.39861111111111114)],[np.float64(0.28055555555555556)],[1],[0],[0],[3.1471935420049704],['target'],subhangi,001,2025-09-22_21h11.08.667,visual search task 1,,2025.1.1,118.98735902427555,2025-09-22 21h11.17.687255 +0530,
10,0,10,[np.float64(-0.3347222222222222)],[np.float64(0.4652777777777778)],[1],[0],[0],[4.354541083004733],['target'],10,0,10,0,26.581053750000137,,5,26.57211583299795,26.581053750000137,26.581053750000137,0.011239792002015747,30.926750582999375,[np.float64(-0.3347222222222222)],[np.float64(0.4652777777777778)],[1],[0],[0],[4.354541083004733],['target'],subhangi,001,2025-09-22_21h11.08.667,visual search task 1,,2025.1.1,118.98735902427555,2025-09-22 21h11.17.687255 +0530,
11,0,11,[np.float64(-0.30694444444444446)],[np.float64(0.32083333333333336)],[1],[0],[0],[2.5076287089977995],['target'],11,0,11,0,30.966832541002077,,10,30.95317579100083,30.966832541002077,30.966832541002077,0.026261209000949748,33.460858791004284,[np.float64(-0.30694444444444446)],[np.float64(0.32083333333333336)],[1],[0],[0],[2.5076287089977995],['target'],subhangi,001,2025-09-22_21h11.08.667,visual search task 1,,2025.1.1,118.98735902427555,2025-09-22 21h11.17.687255 +0530,
12,0,12,[np.float64(-0.17222222222222222)],[np.float64(0.425)],[1],[0],[0],[1.8134219580024364],['target'],12,0,12,0,33.48960712500411,,10,33.479477790999226,33.48960712500411,33.48960712500411,0.018453875003615394,35.29296441600309,[np.float64(-0.17222222222222222)],[np.float64(0.425)],[1],[0],[0],[1.8134219580024364],['target'],subhangi,001,2025-09-22_21h11.08.667,visual search task 1,,2025.1.1,118.98735902427555,2025-09-22 21h11.17.687255 +0530,
13,0,13,[np.float64(0.1111111111111111)],[np.float64(-0.38055555555555554)],[1],[0],[0],[2.1148549169956823],['target'],13,0,13,0,35.321452415999374,,10,35.311307666001085,35.321452415999374,35.321452415999374,0.018186332999903243,37.42623020800238,[np.float64(0.1111111111111111)],[np.float64(-0.38055555555555554)],[1],[0],[0],[2.1148549169956823],['target'],subhangi,001,2025-09-22_21h11.08.667,visual search task 1,,2025.1.1,118.98735902427555,2025-09-22 21h11.17.687255 +0530,
14,0,14,[np.float64(-0.49444444444444446)],[np.float64(-0.4388888888888889)],[1],[0],[0],[1.9568718329974217],['target'],14,0,14,0,37.445867624999664,,5,37.43722329100274,37.445867624999664,37.445867624999664,0.0108306249967427,39.39417816600326,[np.float64(-0.49444444444444446)],[np.float64(-0.4388888888888889)],[1],[0],[0],[1.9568718329974217],['target'],subhangi,001,2025-09-22_21h11.08.667,visual search task 1,,2025.1.1,118.98735902427555,2025-09-22 21h11.17.687255 +0530,
15,0,15,[np.float64(0.06666666666666667)],[np.float64(-0.42083333333333334)],[1],[0],[0],[1.8524471249984344],['target'],15,0,15,0,39.418659250004566,,5,39.408536666000145,39.418659250004566,39.418659250004566,0.014199290999385994,41.26106079100282,[np.float64(0.06666666666666667)],[np.float64(-0.42083333333333334)],[1],[0],[0],[1.8524471249984344],['target'],subhangi,001,2025-09-22_21h11.08.667,visual search task 1,,2025.1.1,118.98735902427555,2025-09-22 21h11.17.687255 +0530,
16,0,16,[np.float64(-0.20277777777777778)],[np.float64(-0.1375)],[1],[0],[0],[1.568497208005283],['target'],16,0,16,0,41.28615025000181,,5,41.27578150000045,41.28615025000181,41.28615025000181,0.014557833004801068,42.844363374999375,[np.float64(-0.20277777777777778)],[np.float64(-0.1375)],[1],[0],[0],[1.568497208005283],['target'],subhangi,001,2025-09-22_21h11.08.667,visual search task 1,,2025.1.1,118.98735902427555,2025-09-22 21h11.17.687255 +0530,
17,0,17,[np.float64(0.18333333333333332)],[np.float64(0.05)],[1],[0],[0],[1.6060920000018086],['target'],17,0,17,0,42.883728749999136,,10,42.87071170800482,42.883728749999136,42.883728749999136,0.02617554099560948,44.47685741600435,[np.float64(0.18333333333333332)],[np.float64(0.05)],[1],[0],[0],[1.6060920000018086],['target'],subhangi,001,2025-09-22_21h11.08.667,visual search task 1,,2025.1.1,118.98735902427555,2025-09-22 21h11.17.687255 +0530,
18,0,18,[np.float64(-0.37083333333333335)],[np.float64(0.17916666666666667)],[1],[0],[0],[1.6898680830054218],['target'],18,0,18,0,44.49739691599825,,5,44.48838083300507,44.49739691599825,44.49739691599825,0.01137491700501414,46.178344125000876,[np.float64(-0.37083333333333335)],[np.float64(0.17916666666666667)],[1],[0],[0],[1.6898680830054218],['target'],subhangi,001,2025-09-22_21h11.08.667,visual search task 1,,2025.1.1,118.98735902427555,2025-09-22 21h11.17.687255 +0530,
19,0,19,[np.float64(-0.19027777777777777)],[np.float64(-0.04861111111111111)],[1],[0],[0],[1.424065041996073],['target'],19,0,19,0,46.21578208300343,,10,46.202664290998655,46.21578208300343,46.21578208300343,0.02415399999881629,47.62678079100442,[np.float64(-0.19027777777777777)],[np.float64(-0.04861111111111111)],[1],[0],[0],[1.424065041996073],['target'],subhangi,001,2025-09-22_21h11.08.667,visual search task 1,,2025.1.1,118.98735902427555,2025-09-22 21h11.17.687255 +0530,
20,0,20,[np.float64(-0.33611111111111114)],[np.float64(0.35138888888888886)],[1],[0],[0],[1.6232919579997542],['target'],20,0,20,0,47.6460121659984,,5,47.6379511250052,47.6460121659984,47.6460121659984,0.01102099999843631,49.261335041002894,[np.float64(-0.33611111111111114)],[np.float64(0.35138888888888886)],[1],[0],[0],[1.6232919579997542],['target'],subhangi,001,2025-09-22_21h11.08.667,visual search task 1,,2025.1.1,118.98735902427555,2025-09-22 21h11.17.687255 +0530,
21,0,21,[np.float64(-0.09444444444444444)],[np.float64(0.4527777777777778)],[1],[0],[0],[1.8076401670041378],['target'],21,0,21,0,49.29933308299951,,10,49.28635591600323,49.29933308299951,49.29933308299951,0.024854791001416743,51.094053958004224,[np.float64(-0.09444444444444444)],[np.float64(0.4527777777777778)],[1],[0],[0],[1.8076401670041378],['target'],subhangi,001,2025-09-22_21h11.08.667,visual search task 1,,2025.1.1,118.98735902427555,2025-09-22 21h11.17.687255 +0530,
22,0,22,[np.float64(-0.30277777777777776)],[np.float64(0.18333333333333332)],[1],[0],[0],[3.129944082997099],['target'],22,0,22,0,51.12391900000512,,10,51.11322266600473,51.12391900000512,51.12391900000512,0.019017082995560486,54.24322508300247,[np.float64(-0.30277777777777776)],[np.float64(0.18333333333333332)],[1],[0],[0],[3.129944082997099],['target'],subhangi,001,2025-09-22_21h11.08.667,visual search task 1,,2025.1.1,118.98735902427555,2025-09-22 21h11.17.687255 +0530,
23,0,23,[np.float64(0.06666666666666667)],[np.float64(0.4)],[1],[0],[0],[2.1730897079978604],['target'],23,0,23,0,54.26193825000519,,5,54.25384545799898,54.26193825000519,54.26193825000519,0.010491332999663427,56.4270251659982,[np.float64(0.06666666666666667)],[np.float64(0.4)],[1],[0],[0],[2.1730897079978604],['target'],subhangi,001,2025-09-22_21h11.08.667,visual search task 1,,2025.1.1,118.98735902427555,2025-09-22 21h11.17.687255 +0530,
24,0,24,[np.float64(-0.20555555555555555)],[np.float64(-0.4152777777777778)],[1],[0],[0],[2.125317707999784],['target'],24,0,24,0,56.46429787499801,,10,56.451308249997965,56.46429787499801,56.46429787499801,0.02411983299680287,58.5766832080044,[np.float64(-0.20555555555555555)],[np.float64(-0.4152777777777778)],[1],[0],[0],[2.125317707999784],['target'],subhangi,001,2025-09-22_21h11.08.667,visual search task 1,,2025.1.1,118.98735902427555,2025-09-22 21h11.17.687255 +0530,
25,0,25,[np.float64(0.38472222222222224)],[np.float64(-0.29305555555555557)],[1],[0],[0],[3.174210832999961],['target'],25,0,25,0,58.59580820800329,,5,58.58746545800386,58.59580820800329,58.59580820800329,0.01062304200604558,61.761768666001444,[np.float64(0.38472222222222224)],[np.float64(-0.29305555555555557)],[1],[0],[0],[3.174210832999961],['target'],subhangi,001,2025-09-22_21h11.08.667,visual search task 1,,2025.1.1,118.98735902427555,2025-09-22 21h11.17.687255 +0530,
26,0,26,[np.float64(-0.07083333333333333)],[np.float64(0.4666666666666667)],[1],[0],[0],[5.090412750003452],['target'],26,0,26,0,61.80138441600138,,10,61.787785291002365,61.80138441600138,61.80138441600138,0.025852375001704786,66.87825975000305,[np.float64(-0.07083333333333333)],[np.float64(0.4666666666666667)],[1],[0],[0],[5.090412750003452],['target'],subhangi,001,2025-09-22_21h11.08.667,visual search task 1,,2025.1.1,118.98735902427555,2025-09-22 21h11.17.687255 +0530,
27,0,27,[np.float64(-0.2861111111111111)],[np.float64(-0.38055555555555554)],[1],[0],[0],[1.9388000839971937],['target'],27,0,27,0,66.89710670799832,,5,66.88911308300158,66.89710670799832,66.89710670799832,0.010672415999579243,68.8279867079982,[np.float64(-0.2861111111111111)],[np.float64(-0.38055555555555554)],[1],[0],[0],[1.9388000839971937],['target'],subhangi,001,2025-09-22_21h11.08.667,visual search task 1,,2025.1.1,118.98735902427555,2025-09-22 21h11.17.687255 +0530,
28,0,28,[np.float64(-0.03194444444444444)],[np.float64(-0.35694444444444445)],[1],[0],[0],[2.2751422920046025],['target'],28,0,28,0,68.86405220800225,,10,68.85144370800117,68.86405220800225,68.86405220800225,0.023318874998949468,71.12666070800333,[np.float64(-0.03194444444444444)],[np.float64(-0.35694444444444445)],[1],[0],[0],[2.2751422920046025],['target'],subhangi,001,2025-09-22_21h11.08.667,visual search task 1,,2025.1.1,118.98735902427555,2025-09-22 21h11.17.687255 +0530,
29,0,29,[np.float64(0.38055555555555554)],[np.float64(-0.2916666666666667)],[1],[0],[0],[1.6246280830018804],['target'],29,0,29,0,71.14561470800254,,5,71.13759016599943,71.14561470800254,71.14561470800254,0.010781667006085627,72.76230475000193,[np.float64(0.38055555555555554)],[np.float64(-0.2916666666666667)],[1],[0],[0],[1.6246280830018804],['target'],subhangi,001,2025-09-22_21h11.08.667,visual search task 1,,2025.1.1,118.98735902427555,2025-09-22 21h11.17.687255 +0530,
30,0,30,[np.float64(-0.001388888888888889)],[np.float64(-0.0763888888888889)],[1],[0],[0],[3.005249666995951],['target'],30,0,30,0,72.80170908300352,,10,72.78809237499809,72.80170908300352,72.80170908300352,0.02562112499435898,75.79339762499876,[np.float64(-0.001388888888888889)],[np.float64(-0.0763888888888889)],[1],[0],[0],[3.005249666995951],['target'],subhangi,001,2025-09-22_21h11.08.667,visual search task 1,,2025.1.1,118.98735902427555,2025-09-22 21h11.17.687255 +0530,
31,0,31,[np.float64(0.2833333333333333)],[np.float64(0.12083333333333333)],[1],[0],[0],[1.9638629159962875],['target'],31,0,31,0,75.82389020800474,,10,75.81346891599969,75.82389020800474,75.82389020800474,0.019919666003261227,77.77739770799963,[np.float64(0.2833333333333333)],[np.float64(0.12083333333333333)],[1],[0],[0],[1.9638629159962875],['target'],subhangi,001,2025-09-22_21h11.08.667,visual search task 1,,2025.1.1,118.98735902427555,2025-09-22 21h11.17.687255 +0530,
32,0,32,[np.float64(0.16666666666666666)],[np.float64(-0.1111111111111111)],[1],[0],[0],[1.531247834005626],['target'],32,0,32,0,77.80649512499804,,10,77.79614416600089,77.80649512499804,77.80649512499804,0.01859166700160131,79.32747458299855,[np.float64(0.16666666666666666)],[np.float64(-0.1111111111111111)],[1],[0],[0],[1.531247834005626],['target'],subhangi,001,2025-09-22_21h11.08.667,visual search task 1,,2025.1.1,118.98735902427555,2025-09-22 21h11.17.687255 +0530,
33,0,33,[np.float64(-0.3263888888888889)],[np.float64(-0.2833333333333333)],[1],[0],[0],[2.4812747500036494],['target'],33,0,33,0,79.35683175000304,,10,79.34627495799941,79.35683175000304,79.35683175000304,0.01866412500385195,81.82761520799977,[np.float64(-0.3263888888888889)],[np.float64(-0.2833333333333333)],[1],[0],[0],[2.4812747500036494],['target'],subhangi,001,2025-09-22_21h11.08.667,visual search task 1,,2025.1.1,118.98735902427555,2025-09-22 21h11.17.687255 +0530,
34,0,34,[np.float64(0.21388888888888888)],[np.float64(0.0875)],[1],[0],[0],[1.8235772080006427],['target'],34,0,34,0,81.84819745799905,,5,81.83907175000058,81.84819745799905,81.84819745799905,0.011298416997306049,83.66270870800508,[np.float64(0.21388888888888888)],[np.float64(0.0875)],[1],[0],[0],[1.8235772080006427],['target'],subhangi,001,2025-09-22_21h11.08.667,visual search task 1,,2025.1.1,118.98735902427555,2025-09-22 21h11.17.687255 +0530,
35,0,35,[np.float64(-0.23194444444444445)],[np.float64(-0.3013888888888889)],[1],[0],[0],[3.2918956669964246],['target'],35,0,35,0,83.69768183300039,,10,83.68564129099832,83.69768183300039,83.69768183300039,0.022789875001762994,86.97759545800363,[np.float64(-0.23194444444444445)],[np.float64(-0.3013888888888889)],[1],[0],[0],[3.2918956669964246],['target'],subhangi,001,2025-09-22_21h11.08.667,visual search task 1,,2025.1.1,118.98735902427555,2025-09-22 21h11.17.687255 +0530,
36,0,36,[np.float64(-0.175)],[np.float64(-0.06111111111111111)],[1],[0],[0],[1.5658948330019484],['target'],36,0,36,0,87.00585016600235,,10,86.99591079100355,87.00585016600235,87.00585016600235,0.018180416998802684,88.5618779580036,[np.float64(-0.175)],[np.float64(-0.06111111111111111)],[1],[0],[0],[1.5658948330019484],['target'],subhangi,001,2025-09-22_21h11.08.667,visual search task 1,,2025.1.1,118.98735902427555,2025-09-22 21h11.17.687255 +0530,
37,0,37,[np.float64(-0.5013888888888889)],[np.float64(0.1)],[1],[0],[0],[1.8584603749986854],['target'],37,0,37,0,88.58045304100233,,5,88.57245254100417,88.58045304100233,88.58045304100233,0.010433542003738694,90.43100429100014,[np.float64(-0.5013888888888889)],[np.float64(0.1)],[1],[0],[0],[1.8584603749986854],['target'],subhangi,001,2025-09-22_21h11.08.667,visual search task 1,,2025.1.1,118.98735902427555,2025-09-22 21h11.17.687255 +0530,
38,0,38,[np.float64(0.2986111111111111)],[np.float64(-0.10277777777777777)],[1],[0],[0],[1.7482975419989089],['target'],38,0,38,0,90.45880020799814,,5,90.44753375000437,90.45880020799814,90.45880020799814,0.016337624998413958,92.19590400000016,[np.float64(0.2986111111111111)],[np.float64(-0.10277777777777777)],[1],[0],[0],[1.7482975419989089],['target'],subhangi,001,2025-09-22_21h11.08.667,visual search task 1,,2025.1.1,118.98735902427555,2025-09-22 21h11.17.687255 +0530,
39,0,39,[np.float64(0.11527777777777778)],[np.float64(-0.35138888888888886)],[1],[0],[0],[1.5365374999964843],['target'],39,0,39,0,92.22021129100176,,5,92.21014783300052,92.22021129100176,92.22021129100176,0.014069709002797026,93.74677820799843,[np.float64(0.11527777777777778)],[np.float64(-0.35138888888888886)],[1],[0],[0],[1.5365374999964843],['target'],subhangi,001,2025-09-22_21h11.08.667,visual search task 1,,2025.1.1,118.98735902427555,2025-09-22 21h11.17.687255 +0530,
40,0,40,[np.float64(-0.4444444444444444)],[np.float64(-0.04861111111111111)],[1],[0],[0],[1.8174935829956667],['target'],40,0,40,0,93.77231312500226,,5,93.76188474999799,93.77231312500226,93.77231312500226,0.014944041999115143,95.57944483299798,[np.float64(-0.4444444444444444)],[np.float64(-0.04861111111111111)],[1],[0],[0],[1.8174935829956667],['target'],subhangi,001,2025-09-22_21h11.08.667,visual search task 1,,2025.1.1,118.98735902427555,2025-09-22 21h11.17.687255 +0530,
41,0,41,[np.float64(-0.12777777777777777)],[np.float64(0.4652777777777778)],[1],[0],[0],[1.9042664159933338],['target'],41,0,41,0,95.60256825000397,,5,95.59299433300475,95.60256825000397,95.60256825000397,0.013376916998822708,97.49734766600159,[np.float64(-0.12777777777777777)],[np.float64(0.4652777777777778)],[1],[0],[0],[1.9042664159933338],['target'],subhangi,001,2025-09-22_21h11.08.667,visual search task 1,,2025.1.1,118.98735902427555,2025-09-22 21h11.17.687255 +0530,
42,0,42,[np.float64(-0.25972222222222224)],[np.float64(-0.35138888888888886)],[1],[0],[0],[1.8667180409975117],['target'],42,0,42,0,97.52199670800474,,5,97.51162554100301,97.52199670800474,97.52199670800474,0.014087000003200956,99.3784175000037,[np.float64(-0.25972222222222224)],[np.float64(-0.35138888888888886)],[1],[0],[0],[1.8667180409975117],['target'],subhangi,001,2025-09-22_21h11.08.667,visual search task 1,,2025.1.1,118.98735902427555,2025-09-22 21h11.17.687255 +0530,
43,0,43,[np.float64(-0.3527777777777778)],[np.float64(0.3888888888888889)],[1],[0],[0],[1.4573402909954893],['target'],43,0,43,0,99.41619295800047,,10,99.40310304100421,99.41619295800047,99.41619295800047,0.024518457998055965,100.86049312500108,[np.float64(-0.3527777777777778)],[np.float64(0.3888888888888889)],[1],[0],[0],[1.4573402909954893],['target'],subhangi,001,2025-09-22_21h11.08.667,visual search task 1,,2025.1.1,118.98735902427555,2025-09-22 21h11.17.687255 +0530,
44,0,44,[np.float64(-0.3347222222222222)],[np.float64(-0.058333333333333334)],[1],[0],[0],[3.608031458003097],['target'],44,0,44,0,100.87851049999881,,5,100.87067054100044,100.87851049999881,100.87851049999881,0.010036958003183827,104.47878704100003,[np.float64(-0.3347222222222222)],[np.float64(-0.058333333333333334)],[1],[0],[0],[3.608031458003097],['target'],subhangi,001,2025-09-22_21h11.08.667,visual search task 1,,2025.1.1,118.98735902427555,2025-09-22 21h11.17.687255 +0530,
45,0,45,[np.float64(-0.06944444444444445)],[np.float64(-0.25416666666666665)],[1],[0],[0],[4.04390345900174],['target'],45,0,45,0,104.51299283299886,,10,104.50156170799892,104.51299283299886,104.51299283299886,0.022628625003562775,108.54552325000259,[np.float64(-0.06944444444444445)],[np.float64(-0.25416666666666665)],[1],[0],[0],[4.04390345900174],['target'],subhangi,001,2025-09-22_21h11.08.667,visual search task 1,,2025.1.1,118.98735902427555,2025-09-22 21h11.17.687255 +0530,
46,0,46,"[np.float64(-0.06944444444444445), np.float64(-0.4861111111111111)]","[np.float64(-0.25416666666666665), np.float64(0.45416666666666666)]","[1, 1]","[0, 0]","[0, 0]","[0.2047512920034933, 2.45641712500219]","[None, 'target']",46,0,46,0,108.5659138330011,,5,108.55715262499871,108.5659138330011,108.5659138330011,0.01147612500062678,111.01365437500499,"[np.float64(-0.06944444444444445), np.float64(-0.4861111111111111)]","[np.float64(-0.25416666666666665), np.float64(0.45416666666666666)]","[1, 1]","[0, 0]","[0, 0]","[0.2047512920034933, 2.45641712500219]","[None, 'target']",subhangi,001,2025-09-22_21h11.08.667,visual search task 1,,2025.1.1,118.98735902427555,2025-09-22 21h11.17.687255 +0530,
47,0,47,[np.float64(-0.20972222222222223)],[np.float64(-0.38472222222222224)],[1],[0],[0],[2.60240879200137],['target'],47,0,47,0,111.03755712500424,,5,111.02710670800298,111.03755712500424,111.03755712500424,0.013271417003124952,113.62959895800304,[np.float64(-0.20972222222222223)],[np.float64(-0.38472222222222224)],[1],[0],[0],[2.60240879200137],['target'],subhangi,001,2025-09-22_21h11.08.667,visual search task 1,,2025.1.1,118.98735902427555,2025-09-22 21h11.17.687255 +0530,
48,0,48,[np.float64(-0.12777777777777777)],[np.float64(-0.3888888888888889)],[1],[0],[0],[2.5688112920033745],['target'],48,0,48,0,113.65402158300276,,5,113.64377279100154,113.65402158300276,113.65402158300276,0.014019666996318847,116.21264687499934,[np.float64(-0.12777777777777777)],[np.float64(-0.3888888888888889)],[1],[0],[0],[2.5688112920033745],['target'],subhangi,001,2025-09-22_21h11.08.667,visual search task 1,,2025.1.1,118.98735902427555,2025-09-22 21h11.17.687255 +0530,
49,0,49,[np.float64(-0.06527777777777778)],[np.float64(-0.4666666666666667)],[1],[0],[0],[2.438274291002017],['target'],49,0,49,0,116.23312799999985,,5,116.22458337499847,116.23312799999985,116.23312799999985,0.011810165997303557,118.66293291599868,[np.float64(-0.06527777777777778)],[np.float64(-0.4666666666666667)],[1],[0],[0],[2.438274291002017],['target'],subhangi,001,2025-09-22_21h11.08.667,visual search task 1,,2025.1.1,118.98735902427555,2025-09-22 21h11.17.687255 +0530,
50,0,50,[np.float64(-0.16944444444444445)],[np.float64(0.022222222222222223)],[1],[0],[0],[1.4429620840019197],['target'],50,0,50,0,118.69841325000016,,10,118.68614800000068,118.69841325000016,118.69841325000016,0.023072374999173917,120.12915020799846,[np.float64(-0.16944444444444445)],[np.float64(0.022222222222222223)],[1],[0],[0],[1.4429620840019197],['target'],subhangi,001,2025-09-22_21h11.08.667,visual search task 1,,2025.1.1,118.98735902427555,2025-09-22 21h11.17.687255 +0530,
51,0,51,[np.float64(-0.43333333333333335)],[np.float64(-0.31666666666666665)],[1],[0],[0],[1.540737083996646],['target'],51,0,51,0,120.14492737500404,,5,120.13790179100033,120.14492737500404,120.14492737500404,0.008644417001050897,121.67871008300426,[np.float64(-0.43333333333333335)],[np.float64(-0.31666666666666665)],[1],[0],[0],[1.540737083996646],['target'],subhangi,001,2025-09-22_21h11.08.667,visual search task 1,,2025.1.1,118.98735902427555,2025-09-22 21h11.17.687255 +0530,
52,0,52,[np.float64(-0.2833333333333333)],[np.float64(0.24583333333333332)],[1],[0],[0],[0.9966109169981792],['target'],52,0,52,0,121.70927608299826,,10,121.69886366600258,121.70927608299826,121.70927608299826,0.02002458299830323,122.69552387500153,[np.float64(-0.2833333333333333)],[np.float64(0.24583333333333332)],[1],[0],[0],[0.9966109169981792],['target'],subhangi,001,2025-09-22_21h11.08.667,visual search task 1,,2025.1.1,118.98735902427555,2025-09-22 21h11.17.687255 +0530,
53,0,53,[np.float64(-0.16666666666666666)],[np.float64(0.3194444444444444)],[1],[0],[0],[1.807971207999799],['target'],53,0,53,0,122.71235595799953,,5,122.70490566600347,122.71235595799953,122.71235595799953,0.009275500000512693,124.51291591599875,[np.float64(-0.16666666666666666)],[np.float64(0.3194444444444444)],[1],[0],[0],[1.807971207999799],['target'],subhangi,001,2025-09-22_21h11.08.667,visual search task 1,,2025.1.1,118.98735902427555,2025-09-22 21h11.17.687255 +0530,
54,0,54,[np.float64(0.06944444444444445)],[np.float64(-0.10138888888888889)],[1],[0],[0],[1.2574318330007372],['target'],54,0,54,0,124.52916820799874,,5,124.52210300000297,124.52916820799874,124.52916820799874,0.009093124994251411,125.77960366600018,[np.float64(0.06944444444444445)],[np.float64(-0.10138888888888889)],[1],[0],[0],[1.2574318330007372],['target'],subhangi,001,2025-09-22_21h11.08.667,visual search task 1,,2025.1.1,118.98735902427555,2025-09-22 21h11.17.687255 +0530,
55,0,55,[np.float64(0.4527777777777778)],[np.float64(-0.35138888888888886)],[1],[0],[0],[1.3882333330038819],['target'],55,0,55,0,125.80066791600257,,5,125.79177850000269,125.80066791600257,125.80066791600257,0.012052042002324015,127.18007841600047,[np.float64(0.4527777777777778)],[np.float64(-0.35138888888888886)],[1],[0],[0],[1.3882333330038819],['target'],subhangi,001,2025-09-22_21h11.08.667,visual search task 1,,2025.1.1,118.98735902427555,2025-09-22 21h11.17.687255 +0530,
56,0,56,[np.float64(0.3541666666666667)],[np.float64(-0.0763888888888889)],[1],[0],[0],[1.2609792090006522],['target'],56,0,56,0,127.21197279100306,,10,127.20100587500201,127.21197279100306,127.21197279100306,0.02080095799465198,128.4620504580016,[np.float64(0.3541666666666667)],[np.float64(-0.0763888888888889)],[1],[0],[0],[1.2609792090006522],['target'],subhangi,001,2025-09-22_21h11.08.667,visual search task 1,,2025.1.1,118.98735902427555,2025-09-22 21h11.17.687255 +0530,
57,0,57,[np.float64(0.0625)],[np.float64(-0.4375)],[1],[0],[0],[1.699971750000259],['target'],57,0,57,0,128.4879400409991,,10,128.47835866600508,128.4879400409991,128.4879400409991,0.01619991599727655,130.17839245800133,[np.float64(0.0625)],[np.float64(-0.4375)],[1],[0],[0],[1.699971750000259],['target'],subhangi,001,2025-09-22_21h11.08.667,visual search task 1,,2025.1.1,118.98735902427555,2025-09-22 21h11.17.687255 +0530,
58,0,58,[np.float64(-0.0375)],[np.float64(0.4652777777777778)],[1],[0],[0],[3.0158629159996053],['target'],58,0,58,0,130.205770958004,,10,130.1961235409981,130.205770958004,130.205770958004,0.017593834003491793,133.21203712499846,[np.float64(-0.0375)],[np.float64(0.4652777777777778)],[1],[0],[0],[3.0158629159996053],['target'],subhangi,001,2025-09-22_21h11.08.667,visual search task 1,,2025.1.1,118.98735902427555,2025-09-22 21h11.17.687255 +0530,
59,0,59,[np.float64(-0.011111111111111112)],[np.float64(0.3597222222222222)],[1],[0],[0],[2.4687483750021784],['target'],59,0,59,0,133.2369802500034,,10,133.2280236660008,133.2369802500034,133.2369802500034,0.015875334000156727,135.69683570800407,[np.float64(-0.011111111111111112)],[np.float64(0.3597222222222222)],[1],[0],[0],[2.4687483750021784],['target'],subhangi,001,2025-09-22_21h11.08.667,visual search task 1,,2025.1.1,118.98735902427555,2025-09-22 21h11.17.687255 +0530,
60,0,60,[np.float64(0.44027777777777777)],[np.float64(0.20833333333333334)],[1],[0],[0],[1.4067052910031634],['target'],60,0,60,0,135.71418491600343,,5,135.70694862500386,135.71418491600343,135.71418491600343,0.009975000000849832,137.1137292909989,[np.float64(0.44027777777777777)],[np.float64(0.20833333333333334)],[1],[0],[0],[1.4067052910031634],['target'],subhangi,001,2025-09-22_21h11.08.667,visual search task 1,,2025.1.1,118.98735902427555,2025-09-22 21h11.17.687255 +0530,
61,0,61,[np.float64(-0.09861111111111111)],[np.float64(0.4736111111111111)],[1],[0],[0],[1.8945569999996223],['target'],61,0,61,0,137.1467866660023,,10,137.13590408299933,137.1467866660023,137.1467866660023,0.02202729100099532,139.03051658299955,[np.float64(-0.09861111111111111)],[np.float64(0.4736111111111111)],[1],[0],[0],[1.8945569999996223],['target'],subhangi,001,2025-09-22_21h11.08.667,visual search task 1,,2025.1.1,118.98735902427555,2025-09-22 21h11.17.687255 +0530,
62,0,62,[np.float64(-0.3416666666666667)],[np.float64(-0.1388888888888889)],[1],[0],[0],[1.3901049999985844],['target'],62,0,62,0,139.04824300000473,,5,139.04054512500443,139.04824300000473,139.04824300000473,0.009894832997815683,140.4307251249993,[np.float64(-0.3416666666666667)],[np.float64(-0.1388888888888889)],[1],[0],[0],[1.3901049999985844],['target'],subhangi,001,2025-09-22_21h11.08.667,visual search task 1,,2025.1.1,118.98735902427555,2025-09-22 21h11.17.687255 +0530,
63,0,63,[np.float64(-0.26805555555555555)],[np.float64(0.45416666666666666)],[1],[0],[0],[1.3279476669995347],['target'],63,0,63,0,140.46196095800406,,10,140.45129616600025,140.46196095800406,140.46196095800406,0.020443791996513028,141.779292791005,[np.float64(-0.26805555555555555)],[np.float64(0.45416666666666666)],[1],[0],[0],[1.3279476669995347],['target'],subhangi,001,2025-09-22_21h11.08.667,visual search task 1,,2025.1.1,118.98735902427555,2025-09-22 21h11.17.687255 +0530,
64,0,64,[np.float64(0.11805555555555555)],[np.float64(0.30277777777777776)],[1],[0],[0],[3.066720292001264],['target'],64,0,64,0,141.80558595799812,,10,141.79584495800373,141.80558595799812,141.80558595799812,0.016432625001471024,144.8626282080004,[np.float64(0.11805555555555555)],[np.float64(0.30277777777777776)],[1],[0],[0],[3.066720292001264],['target'],subhangi,001,2025-09-22_21h11.08.667,visual search task 1,,2025.1.1,118.98735902427555,2025-09-22 21h11.17.687255 +0530,
65,0,65,"[np.float64(-0.4652777777777778), np.float64(-0.3736111111111111)]","[np.float64(0.4708333333333333), np.float64(-0.38055555555555554)]","[1, 1]","[0, 0]","[0, 0]","[1.5175030419995892, 2.4992748750009923]","[None, 'target']",65,0,65,0,144.88883358300518,,10,144.87957512499997,144.88883358300518,144.88883358300518,0.01679487500223331,147.3789074160013,"[np.float64(-0.4652777777777778), np.float64(-0.3736111111111111)]","[np.float64(0.4708333333333333), np.float64(-0.38055555555555554)]","[1, 1]","[0, 0]","[0, 0]","[1.5175030419995892, 2.4992748750009923]","[None, 'target']",subhangi,001,2025-09-22_21h11.08.667,visual search task 1,,2025.1.1,118.98735902427555,2025-09-22 21h11.17.687255 +0530,
66,0,66,[np.float64(-0.11527777777777778)],[np.float64(0.18194444444444444)],[1],[0],[0],[2.150682583996968],['target'],66,0,66,0,147.40512816599949,,10,147.3957834160028,147.40512816599949,147.40512816599949,0.016730167000787333,149.54653191599937,[np.float64(-0.11527777777777778)],[np.float64(0.18194444444444444)],[1],[0],[0],[2.150682583996968],['target'],subhangi,001,2025-09-22_21h11.08.667,visual search task 1,,2025.1.1,118.98735902427555,2025-09-22 21h11.17.687255 +0530,
67,0,67,[np.float64(0.0763888888888889)],[np.float64(0.4166666666666667)],[1],[0],[0],[1.5080542910000077],['target'],67,0,67,0,149.56212483299896,,5,149.55530525000358,149.56212483299896,149.56212483299896,0.00864516699948581,151.06344137500128,[np.float64(0.0763888888888889)],[np.float64(0.4166666666666667)],[1],[0],[0],[1.5080542910000077],['target'],subhangi,001,2025-09-22_21h11.08.667,visual search task 1,,2025.1.1,118.98735902427555,2025-09-22 21h11.17.687255 +0530,
68,0,68,[np.float64(0.3125)],[np.float64(0.24444444444444444)],[1],[0],[0],[1.0291560420009773],['target'],68,0,68,0,151.09487583300506,,10,151.0845382500047,151.09487583300506,151.09487583300506,0.020972584003175143,152.11374787500245,[np.float64(0.3125)],[np.float64(0.24444444444444444)],[1],[0],[0],[1.0291560420009773],['target'],subhangi,001,2025-09-22_21h11.08.667,visual search task 1,,2025.1.1,118.98735902427555,2025-09-22 21h11.17.687255 +0530,
69,0,69,[np.float64(0.04027777777777778)],[np.float64(-0.4111111111111111)],[1],[0],[0],[1.533518374999403],['target'],69,0,69,0,152.1389416660022,,10,152.12974741600192,152.1389416660022,152.1389416660022,0.01587404200108722,153.6633189159984,[np.float64(0.04027777777777778)],[np.float64(-0.4111111111111111)],[1],[0],[0],[1.533518374999403],['target'],subhangi,001,2025-09-22_21h11.08.667,visual search task 1,,2025.1.1,118.98735902427555,2025-09-22 21h11.17.687255 +0530,
70,0,70,[np.float64(-0.059722222222222225)],[np.float64(0.44583333333333336)],[1],[0],[0],[1.4996737080000457],['target'],70,0,70,0,153.68904620800458,,10,153.67976025000098,153.68904620800458,153.68904620800458,0.01632383299875073,155.1794809999992,[np.float64(-0.059722222222222225)],[np.float64(0.44583333333333336)],[1],[0],[0],[1.4996737080000457],['target'],subhangi,001,2025-09-22_21h11.08.667,visual search task 1,,2025.1.1,118.98735902427555,2025-09-22 21h11.17.687255 +0530,
71,0,71,[np.float64(0.2833333333333333)],[np.float64(-0.1486111111111111)],[1],[0],[0],[1.5913859169959323],['target'],71,0,71,0,155.19590179100487,,5,155.18850508300238,155.19590179100487,155.19590179100487,0.008917458995711058,156.7799528329997,[np.float64(0.2833333333333333)],[np.float64(-0.1486111111111111)],[1],[0],[0],[1.5913859169959323],['target'],subhangi,001,2025-09-22_21h11.08.667,visual search task 1,,2025.1.1,118.98735902427555,2025-09-22 21h11.17.687255 +0530,
72,0,72,[np.float64(-0.22777777777777777)],[np.float64(0.37916666666666665)],[1],[0],[0],[2.3970792910040473],['target'],72,0,72,0,156.80948799999896,,10,156.79942212500464,156.80948799999896,156.80948799999896,0.019343457999639213,159.19655791600235,[np.float64(-0.22777777777777777)],[np.float64(0.37916666666666665)],[1],[0],[0],[2.3970792910040473],['target'],subhangi,001,2025-09-22_21h11.08.667,visual search task 1,,2025.1.1,118.98735902427555,2025-09-22 21h11.17.687255 +0530,
73,0,73,[np.float64(-0.35)],[np.float64(0.4736111111111111)],[1],[0],[0],[1.0510167079992243],['target'],73,0,73,0,159.22148812500382,,10,159.21220800000447,159.22148812500382,159.22148812500382,0.01553050000075018,160.26327412499813,[np.float64(-0.35)],[np.float64(0.4736111111111111)],[1],[0],[0],[1.0510167079992243],['target'],subhangi,001,2025-09-22_21h11.08.667,visual search task 1,,2025.1.1,118.98735902427555,2025-09-22 21h11.17.687255 +0530,
74,0,74,[np.float64(-0.19722222222222222)],[np.float64(-0.2)],[1],[0],[0],[1.4584282919968246],['target'],74,0,74,0,160.28098424999916,,5,160.2726850830004,160.28098424999916,160.28098424999916,0.009308291999332141,161.73118079100095,[np.float64(-0.19722222222222222)],[np.float64(-0.2)],[1],[0],[0],[1.4584282919968246],['target'],subhangi,001,2025-09-22_21h11.08.667,visual search task 1,,2025.1.1,118.98735902427555,2025-09-22 21h11.17.687255 +0530,
75,0,75,[np.float64(0.33194444444444443)],[np.float64(0.2708333333333333)],[1],[0],[0],[2.176396791001025],['target'],75,0,75,0,161.76538291600446,,10,161.7540615830003,161.76538291600446,161.76538291600446,0.022740917003829964,163.93050354099978,[np.float64(0.33194444444444443)],[np.float64(0.2708333333333333)],[1],[0],[0],[2.176396791001025],['target'],subhangi,001,2025-09-22_21h11.08.667,visual search task 1,,2025.1.1,118.98735902427555,2025-09-22 21h11.17.687255 +0530,
76,0,76,[np.float64(-0.12638888888888888)],[np.float64(0.20972222222222223)],[1],[0],[0],[1.3074750419982593],['target'],76,0,76,0,163.94710737500282,,5,163.93959037500463,163.94710737500282,163.94710737500282,0.008971708004537504,165.247130249998,[np.float64(-0.12638888888888888)],[np.float64(0.20972222222222223)],[1],[0],[0],[1.3074750419982593],['target'],subhangi,001,2025-09-22_21h11.08.667,visual search task 1,,2025.1.1,118.98735902427555,2025-09-22 21h11.17.687255 +0530,
77,0,77,[np.float64(0.16805555555555557)],[np.float64(0.44583333333333336)],[1],[0],[0],[1.813006416996359],['target'],77,0,77,0,165.2776831250012,,10,165.26736425000126,165.2776831250012,165.2776831250012,0.020107459000428207,167.0804218330013,[np.float64(0.16805555555555557)],[np.float64(0.44583333333333336)],[1],[0],[0],[1.813006416996359],['target'],subhangi,001,2025-09-22_21h11.08.667,visual search task 1,,2025.1.1,118.98735902427555,2025-09-22 21h11.17.687255 +0530,
78,0,78,[np.float64(0.18888888888888888)],[np.float64(-0.22083333333333333)],[1],[0],[0],[1.7747934159997385],['target'],78,0,78,0,167.09653524999885,,5,167.0893927080033,167.09653524999885,167.09653524999885,0.00885420800477732,168.86425983300433,[np.float64(0.18888888888888888)],[np.float64(-0.22083333333333333)],[1],[0],[0],[1.7747934159997385],['target'],subhangi,001,2025-09-22_21h11.08.667,visual search task 1,,2025.1.1,118.98735902427555,2025-09-22 21h11.17.687255 +0530,
79,0,79,[np.float64(0.4777777777777778)],[np.float64(-0.19722222222222222)],[1],[0],[0],[1.8553872499978752],['target'],79,0,79,0,168.8838287910039,,5,168.87562175000494,168.8838287910039,168.8838287910039,0.011242374996072613,170.73107554099988,[np.float64(0.4777777777777778)],[np.float64(-0.19722222222222222)],[1],[0],[0],[1.8553872499978752],['target'],subhangi,001,2025-09-22_21h11.08.667,visual search task 1,,2025.1.1,118.98735902427555,2025-09-22 21h11.17.687255 +0530,
80,0,80,[np.float64(-0.14583333333333334)],[np.float64(-0.08194444444444444)],[1],[0],[0],[1.5053892089999863],['target'],80,0,80,0,170.7516886250014,,5,170.7429264579987,170.7516886250014,170.7516886250014,0.011725333002686966,172.24841133299924,[np.float64(-0.14583333333333334)],[np.float64(-0.08194444444444444)],[1],[0],[0],[1.5053892089999863],['target'],subhangi,001,2025-09-22_21h11.08.667,visual search task 1,,2025.1.1,118.98735902427555,2025-09-22 21h11.17.687255 +0530,
81,0,81,[np.float64(0.4861111111111111)],[np.float64(0.3486111111111111)],[1],[0],[0],[1.4291960829941672],['target'],81,0,81,0,172.27804204099812,,10,172.26762608300487,172.27804204099812,172.27804204099812,0.019082541999523528,173.69687545800116,[np.float64(0.4861111111111111)],[np.float64(0.3486111111111111)],[1],[0],[0],[1.4291960829941672],['target'],subhangi,001,2025-09-22_21h11.08.667,visual search task 1,,2025.1.1,118.98735902427555,2025-09-22 21h11.17.687255 +0530,
82,0,82,[np.float64(0.14305555555555555)],[np.float64(-0.4722222222222222)],[1],[0],[0],[2.3173737500037532],['target'],82,0,82,0,173.72239891600475,,10,173.71286545800103,173.72239891600475,173.72239891600475,0.015868667003815062,176.03029254099965,[np.float64(0.14305555555555555)],[np.float64(-0.4722222222222222)],[1],[0],[0],[2.3173737500037532],['target'],subhangi,001,2025-09-22_21h11.08.667,visual search task 1,,2025.1.1,118.98735902427555,2025-09-22 21h11.17.687255 +0530,
83,0,83,[np.float64(0.17777777777777778)],[np.float64(0.36944444444444446)],[1],[0],[0],[1.2914270000037504],['target'],83,0,83,0,176.04638845800218,,5,176.03943695800263,176.04638845800218,176.04638845800218,0.009010457994008902,177.33095162500103,[np.float64(0.17777777777777778)],[np.float64(0.36944444444444446)],[1],[0],[0],[1.2914270000037504],['target'],subhangi,001,2025-09-22_21h11.08.667,visual search task 1,,2025.1.1,118.98735902427555,2025-09-22 21h11.17.687255 +0530,
84,0,84,[np.float64(-0.08472222222222223)],[np.float64(0.4777777777777778)],[1],[0],[0],[1.0037693750055041],['target'],84,0,84,0,177.352530958,,5,177.3433248750007,177.352530958,177.352530958,0.012227374994836282,178.34715166599926,[np.float64(-0.08472222222222223)],[np.float64(0.4777777777777778)],[1],[0],[0],[1.0037693750055041],['target'],subhangi,001,2025-09-22_21h11.08.667,visual search task 1,,2025.1.1,118.98735902427555,2025-09-22 21h11.17.687255 +0530,
85,0,85,[np.float64(-0.21944444444444444)],[np.float64(-0.2875)],[1],[0],[0],[2.4654422079984215],['target'],85,0,85,0,178.37619500000437,,10,178.36575862500467,178.37619500000437,178.37619500000437,0.018497208999178838,180.83124962500005,[np.float64(-0.21944444444444444)],[np.float64(-0.2875)],[1],[0],[0],[2.4654422079984215],['target'],subhangi,001,2025-09-22_21h11.08.667,visual search task 1,,2025.1.1,118.98735902427555,2025-09-22 21h11.17.687255 +0530,
86,0,86,[np.float64(0.14166666666666666)],[np.float64(0.325)],[1],[0],[0],[2.534492875005526],['target'],86,0,86,0,180.85555108300468,,10,180.8461857500006,180.85555108300468,180.85555108300468,0.014824707999650855,183.38073233300383,[np.float64(0.14166666666666666)],[np.float64(0.325)],[1],[0],[0],[2.534492875005526],['target'],subhangi,001,2025-09-22_21h11.08.667,visual search task 1,,2025.1.1,118.98735902427555,2025-09-22 21h11.17.687255 +0530,
87,0,87,[np.float64(0.3472222222222222)],[np.float64(-0.09583333333333334)],[1],[0],[0],[1.5926387090003118],['target'],87,0,87,0,183.39722391599935,,5,183.38951358300255,183.39722391599935,183.39722391599935,0.008664250002766494,184.98221841600025,[np.float64(0.3472222222222222)],[np.float64(-0.09583333333333334)],[1],[0],[0],[1.5926387090003118],['target'],subhangi,001,2025-09-22_21h11.08.667,visual search task 1,,2025.1.1,118.98735902427555,2025-09-22 21h11.17.687255 +0530,
88,0,88,[np.float64(0.2152777777777778)],[np.float64(0.33611111111111114)],[1],[0],[0],[2.2287053750042105],['target'],88,0,88,0,185.0138299579994,,10,185.00319475000288,185.0138299579994,185.0138299579994,0.020844667000346817,187.2319531250032,[np.float64(0.2152777777777778)],[np.float64(0.33611111111111114)],[1],[0],[0],[2.2287053750042105],['target'],subhangi,001,2025-09-22_21h11.08.667,visual search task 1,,2025.1.1,118.98735902427555,2025-09-22 21h11.17.687255 +0530,
89,0,89,[np.float64(-0.2152777777777778)],[np.float64(-0.475)],[1],[0],[0],[2.089903708001657],['target'],89,0,89,0,187.24898929100164,,5,187.24147645800258,187.24898929100164,187.24898929100164,0.009404958000232,189.33144683299906,[np.float64(-0.2152777777777778)],[np.float64(-0.475)],[1],[0],[0],[2.089903708001657],['target'],subhangi,001,2025-09-22_21h11.08.667,visual search task 1,,2025.1.1,118.98735902427555,2025-09-22 21h11.17.687255 +0530,
90,0,90,[np.float64(-0.18333333333333332)],[np.float64(0.05138888888888889)],[1],[0],[0],[1.662479540995264],['target'],90,0,90,0,189.36136658299802,,10,189.35078400000202,189.36136658299802,189.36136658299802,0.019213458996091504,191.0133134580028,[np.float64(-0.18333333333333332)],[np.float64(0.05138888888888889)],[1],[0],[0],[1.662479540995264],['target'],subhangi,001,2025-09-22_21h11.08.667,visual search task 1,,2025.1.1,118.98735902427555,2025-09-22 21h11.17.687255 +0530,
91,0,91,[np.float64(-0.4097222222222222)],[np.float64(0.1625)],[1],[0],[0],[1.5096292909947806],['target'],91,0,91,0,191.030071125002,,5,191.02193304100365,191.030071125002,191.030071125002,0.008502666998538189,192.5316345829997,[np.float64(-0.4097222222222222)],[np.float64(0.1625)],[1],[0],[0],[1.5096292909947806],['target'],subhangi,001,2025-09-22_21h11.08.667,visual search task 1,,2025.1.1,118.98735902427555,2025-09-22 21h11.17.687255 +0530,
92,0,92,[np.float64(0.42083333333333334)],[np.float64(-0.3333333333333333)],[1],[0],[0],[1.5377414169997792],['target'],92,0,92,0,192.55024770800082,,5,192.54261729100108,192.55024770800082,192.55024770800082,0.010855207998247351,194.08042529100203,[np.float64(0.42083333333333334)],[np.float64(-0.3333333333333333)],[1],[0],[0],[1.5377414169997792],['target'],subhangi,001,2025-09-22_21h11.08.667,visual search task 1,,2025.1.1,118.98735902427555,2025-09-22 21h11.17.687255 +0530,
93,0,93,[np.float64(0.08888888888888889)],[np.float64(0.34305555555555556)],[1],[0],[0],[1.5064885419997154],['target'],93,0,93,0,194.09892966600455,,5,194.0913151249988,194.09892966600455,194.09892966600455,0.010773458998301066,195.59786808300123,[np.float64(0.08888888888888889)],[np.float64(0.34305555555555556)],[1],[0],[0],[1.5064885419997154],['target'],subhangi,001,2025-09-22_21h11.08.667,visual search task 1,,2025.1.1,118.98735902427555,2025-09-22 21h11.17.687255 +0530,
94,0,94,[np.float64(0.29444444444444445)],[np.float64(0.3277777777777778)],[1],[0],[0],[1.565371624994441],['target'],94,0,94,0,195.62771354099823,,10,195.617339000004,195.62771354099823,195.62771354099823,0.019347166002262384,197.1827767499999,[np.float64(0.29444444444444445)],[np.float64(0.3277777777777778)],[1],[0],[0],[1.565371624994441],['target'],subhangi,001,2025-09-22_21h11.08.667,visual search task 1,,2025.1.1,118.98735902427555,2025-09-22 21h11.17.687255 +0530,
95,0,95,[np.float64(-0.32083333333333336)],[np.float64(-0.38055555555555554)],[1],[0],[0],[1.5728737090030336],['target'],95,0,95,0,197.2008853330044,,5,197.19307608300005,197.2008853330044,197.2008853330044,0.010162625003431458,198.76602933300455,[np.float64(-0.32083333333333336)],[np.float64(-0.38055555555555554)],[1],[0],[0],[1.5728737090030336],['target'],subhangi,001,2025-09-22_21h11.08.667,visual search task 1,,2025.1.1,118.98735902427555,2025-09-22 21h11.17.687255 +0530,
96,0,96,[np.float64(0.11944444444444445)],[np.float64(-0.2763888888888889)],[1],[0],[0],[1.9756597910018172],['target'],96,0,96,0,198.80033012499916,,10,198.7892954160052,198.80033012499916,198.80033012499916,0.02312441599497106,200.76501533300325,[np.float64(0.11944444444444445)],[np.float64(-0.2763888888888889)],[1],[0],[0],[1.9756597910018172],['target'],subhangi,001,2025-09-22_21h11.08.667,visual search task 1,,2025.1.1,118.98735902427555,2025-09-22 21h11.17.687255 +0530,
97,0,97,[np.float64(0.13472222222222222)],[np.float64(0.2)],[1],[0],[0],[1.4013265000030515],['target'],97,0,97,0,200.79051674999937,,10,200.78125358300167,200.79051674999937,200.79051674999937,0.01611070900253253,202.1826443750033,[np.float64(0.13472222222222222)],[np.float64(0.2)],[1],[0],[0],[1.4013265000030515],['target'],subhangi,001,2025-09-22_21h11.08.667,visual search task 1,,2025.1.1,118.98735902427555,2025-09-22 21h11.17.687255 +0530,
98,0,98,[np.float64(0.11666666666666667)],[np.float64(0.30833333333333335)],[1],[0],[0],[1.1896482080046553],['target'],98,0,98,0,202.1994046250038,,5,202.19181504099834,202.1994046250038,202.1994046250038,0.009048457999597304,203.3815353329992,[np.float64(0.11666666666666667)],[np.float64(0.30833333333333335)],[1],[0],[0],[1.1896482080046553],['target'],subhangi,001,2025-09-22_21h11.08.667,visual search task 1,,2025.1.1,118.98735902427555,2025-09-22 21h11.17.687255 +0530,
99,0,99,[np.float64(0.1361111111111111)],[np.float64(0.42777777777777776)],[1],[0],[0],[1.045947292004712],['target'],99,0,99,0,203.4121782910006,,10,203.40185079100047,203.4121782910006,203.4121782910006,0.02017791699472582,204.4478490410038,[np.float64(0.1361111111111111)],[np.float64(0.42777777777777776)],[1],[0],[0],[1.045947292004712],['target'],subhangi,001,2025-09-22_21h11.08.667,visual search task 1,,2025.1.1,118.98735902427555,2025-09-22 21h11.17.687255 +0530,
100,0,100,[np.float64(-0.36527777777777776)],[np.float64(-0.022222222222222223)],[1],[0],[0],[1.4916148339980282],['target'],100,0,100,0,204.46516066600452,,5,204.457317583001,204.46516066600452,204.46516066600452,0.009362291995785199,205.94898433300114,[np.float64(-0.36527777777777776)],[np.float64(-0.022222222222222223)],[1],[0],[0],[1.4916148339980282],['target'],subhangi,001,2025-09-22_21h11.08.667,visual search task 1,,2025.1.1,118.98735902427555,2025-09-22 21h11.17.687255 +0530,
101,0,101,[np.float64(-0.37916666666666665)],[np.float64(0.4486111111111111)],[1],[0],[0],[1.888161000002583],['target'],101,0,101,0,205.96869454099942,,5,205.96041629100364,205.96869454099942,205.96869454099942,0.011308417000691406,207.84864058300445,[np.float64(-0.37916666666666665)],[np.float64(0.4486111111111111)],[1],[0],[0],[1.888161000002583],['target'],subhangi,001,2025-09-22_21h11.08.667,visual search task 1,,2025.1.1,118.98735902427555,2025-09-22 21h11.17.687255 +0530,
102,0,102,[np.float64(0.1527777777777778)],[np.float64(-0.15138888888888888)],[1],[0],[0],[1.9946732919997885],['target'],102,0,102,0,207.88004004100367,,10,207.86947387499822,207.88004004100367,207.88004004100367,0.020706333001726307,209.8642056250028,[np.float64(0.1527777777777778)],[np.float64(-0.15138888888888888)],[1],[0],[0],[1.9946732919997885],['target'],subhangi,001,2025-09-22_21h11.08.667,visual search task 1,,2025.1.1,118.98735902427555,2025-09-22 21h11.17.687255 +0530,
103,0,103,[np.float64(-0.20555555555555555)],[np.float64(-0.31805555555555554)],[1],[0],[0],[1.3656847500024014],['target'],103,0,103,0,209.8916739999986,,10,209.8820097909993,209.8916739999986,209.8916739999986,0.017667874999460764,211.24774400000024,[np.float64(-0.20555555555555555)],[np.float64(-0.31805555555555554)],[1],[0],[0],[1.3656847500024014],['target'],subhangi,001,2025-09-22_21h11.08.667,visual search task 1,,2025.1.1,118.98735902427555,2025-09-22 21h11.17.687255 +0530,
104,0,104,[np.float64(-0.39444444444444443)],[np.float64(0.43194444444444446)],[1],[0],[0],[1.7664869159998489],['target'],104,0,104,0,211.274410541002,,10,211.2647340830008,211.274410541002,211.274410541002,0.01687474999926053,213.03127187499922,[np.float64(-0.39444444444444443)],[np.float64(0.43194444444444446)],[1],[0],[0],[1.7664869159998489],['target'],subhangi,001,2025-09-22_21h11.08.667,visual search task 1,,2025.1.1,118.98735902427555,2025-09-22 21h11.17.687255 +0530,
105,0,105,[np.float64(-0.09027777777777778)],[np.float64(-0.325)],[1],[0],[0],[1.5686486659978982],['target'],105,0,105,0,213.05518454100093,,10,213.0458277910002,213.05518454100093,213.05518454100093,0.014447833003941923,214.61453175000497,[np.float64(-0.09027777777777778)],[np.float64(-0.325)],[1],[0],[0],[1.5686486659978982],['target'],subhangi,001,2025-09-22_21h11.08.667,visual search task 1,,2025.1.1,118.98735902427555,2025-09-22 21h11.17.687255 +0530,
106,0,106,[np.float64(-0.013888888888888888)],[np.float64(-0.3263888888888889)],[1],[0],[0],[1.3247150829993188],['target'],106,0,106,0,214.63042479100113,,5,214.6233915000048,214.63042479100113,214.63042479100113,0.00874491599824978,215.94816125000216,[np.float64(-0.013888888888888888)],[np.float64(-0.3263888888888889)],[1],[0],[0],[1.3247150829993188],['target'],subhangi,001,2025-09-22_21h11.08.667,visual search task 1,,2025.1.1,118.98735902427555,2025-09-22 21h11.17.687255 +0530,
107,0,107,[np.float64(-0.21805555555555556)],[np.float64(0.4583333333333333)],[1],[0],[0],[5.149202416003391],['target'],107,0,107,0,215.97564591599803,,10,215.9662516660028,215.97564591599803,215.97564591599803,0.017952042006072588,221.11550566599908,[np.float64(-0.21805555555555556)],[np.float64(0.4583333333333333)],[1],[0],[0],[5.149202416003391],['target'],subhangi,001,2025-09-22_21h11.08.667,visual search task 1,,2025.1.1,118.98735902427555,2025-09-22 21h11.17.687255 +0530,
108,0,108,[np.float64(0.18333333333333332)],[np.float64(0.45416666666666666)],[1],[0],[0],[1.1577325420003035],['target'],108,0,108,0,221.1318683749996,,5,221.12417175000155,221.1318683749996,221.1318683749996,0.008555915999750141,222.28196212500188,[np.float64(0.18333333333333332)],[np.float64(0.45416666666666666)],[1],[0],[0],[1.1577325420003035],['target'],subhangi,001,2025-09-22_21h11.08.667,visual search task 1,,2025.1.1,118.98735902427555,2025-09-22 21h11.17.687255 +0530,
109,0,109,[np.float64(0.11805555555555555)],[np.float64(-0.44583333333333336)],[1],[0],[0],[1.7574036669975612],['target'],109,0,109,0,222.29991545800294,,5,222.29195495800377,222.29991545800294,222.29991545800294,0.009875250005279668,224.04942370799836,[np.float64(0.11805555555555555)],[np.float64(-0.44583333333333336)],[1],[0],[0],[1.7574036669975612],['target'],subhangi,001,2025-09-22_21h11.08.667,visual search task 1,,2025.1.1,118.98735902427555,2025-09-22 21h11.17.687255 +0530,
110,0,110,[np.float64(0.06666666666666667)],[np.float64(0.125)],[1],[0],[0],[1.2788224169999012],['target'],110,0,110,0,224.0810295830015,,10,224.0700998329994,224.0810295830015,224.0810295830015,0.020552499998302665,225.3490052499983,[np.float64(0.06666666666666667)],[np.float64(0.125)],[1],[0],[0],[1.2788224169999012],['target'],subhangi,001,2025-09-22_21h11.08.667,visual search task 1,,2025.1.1,118.98735902427555,2025-09-22 21h11.17.687255 +0530,
111,0,111,[np.float64(-0.3541666666666667)],[np.float64(0.34305555555555556)],[1],[0],[0],[1.448971874997369],['target'],111,0,111,0,225.37513016600133,,10,225.36588116599887,225.37513016600133,225.37513016600133,0.016762250001193024,226.81490270799986,[np.float64(-0.3541666666666667)],[np.float64(0.34305555555555556)],[1],[0],[0],[1.448971874997369],['target'],subhangi,001,2025-09-22_21h11.08.667,visual search task 1,,2025.1.1,118.98735902427555,2025-09-22 21h11.17.687255 +0530,
112,0,112,[np.float64(0.43194444444444446)],[np.float64(-0.17222222222222222)],[1],[0],[0],[1.6260263329968438],['target'],112,0,112,0,226.83144704100414,,5,226.82344854099938,226.83144704100414,226.83144704100414,0.008440375000645872,228.44954329100437,[np.float64(0.43194444444444446)],[np.float64(-0.17222222222222222)],[1],[0],[0],[1.6260263329968438],['target'],subhangi,001,2025-09-22_21h11.08.667,visual search task 1,,2025.1.1,118.98735902427555,2025-09-22 21h11.17.687255 +0530,
113,0,113,[np.float64(0.22083333333333333)],[np.float64(-0.30277777777777776)],[1],[0],[0],[2.8296197500021663],['target'],113,0,113,0,228.479384708,,10,228.46882679100236,228.479384708,228.479384708,0.019164334000379313,231.29850570800045,[np.float64(0.22083333333333333)],[np.float64(-0.30277777777777776)],[1],[0],[0],[2.8296197500021663],['target'],subhangi,001,2025-09-22_21h11.08.667,visual search task 1,,2025.1.1,118.98735902427555,2025-09-22 21h11.17.687255 +0530,
114,0,114,[np.float64(-0.4097222222222222)],[np.float64(0.10416666666666667)],[1],[0],[0],[3.009376624999277],['target'],114,0,114,0,231.31437204100075,,5,231.3068330410024,231.31437204100075,231.31437204100075,0.008206915998016484,234.31628037500195,[np.float64(-0.4097222222222222)],[np.float64(0.10416666666666667)],[1],[0],[0],[3.009376624999277],['target'],subhangi,001,2025-09-22_21h11.08.667,visual search task 1,,2025.1.1,118.98735902427555,2025-09-22 21h11.17.687255 +0530,
115,0,115,[np.float64(-0.4486111111111111)],[np.float64(-0.1763888888888889)],[1],[0],[0],[3.1810379160015145],['target'],115,0,115,0,234.3467585410035,,10,234.3364031250021,234.3467585410035,234.3467585410035,0.02000104200124042,237.5175044159987,[np.float64(-0.4486111111111111)],[np.float64(-0.1763888888888889)],[1],[0],[0],[3.1810379160015145],['target'],subhangi,001,2025-09-22_21h11.08.667,visual search task 1,,2025.1.1,118.98735902427555,2025-09-22 21h11.17.687255 +0530,
116,0,116,[np.float64(-0.3527777777777778)],[np.float64(0.4263888888888889)],[1],[0],[0],[2.2653431669968995],['target'],116,0,116,0,237.54419349999807,,10,237.5345439580051,237.54419349999807,237.54419349999807,0.01690608400531346,239.79993479100085,[np.float64(-0.3527777777777778)],[np.float64(0.4263888888888889)],[1],[0],[0],[2.2653431669968995],['target'],subhangi,001,2025-09-22_21h11.08.667,visual search task 1,,2025.1.1,118.98735902427555,2025-09-22 21h11.17.687255 +0530,
117,0,117,[np.float64(0.39305555555555555)],[np.float64(0.23055555555555557)],[1],[0],[0],[1.8060526249973918],['target'],117,0,117,0,239.81777679100196,,5,239.80982570799824,239.81777679100196,239.81777679100196,0.009767167000973132,241.61595054100326,[np.float64(0.39305555555555555)],[np.float64(0.23055555555555557)],[1],[0],[0],[1.8060526249973918],['target'],subhangi,001,2025-09-22_21h11.08.667,visual search task 1,,2025.1.1,118.98735902427555,2025-09-22 21h11.17.687255 +0530,
118,0,118,[np.float64(-0.044444444444444446)],[np.float64(0.33055555555555555)],[1],[0],[0],[1.1728419170030975],['target'],118,0,118,0,241.63505762500426,,5,241.62675370799843,241.63505762500426,241.63505762500426,0.010704874999646563,242.79966491600499,[np.float64(-0.044444444444444446)],[np.float64(0.33055555555555555)],[1],[0],[0],[1.1728419170030975],['target'],subhangi,001,2025-09-22_21h11.08.667,visual search task 1,,2025.1.1,118.98735902427555,2025-09-22 21h11.17.687255 +0530,
119,0,119,[np.float64(0.27361111111111114)],[np.float64(0.058333333333333334)],[1],[0],[0],[1.1131299170010607],['target'],119,0,119,0,242.82936287500343,,10,242.81896266600234,242.82936287500343,242.82936287500343,0.01917012500052806,243.93214658299985,[np.float64(0.27361111111111114)],[np.float64(0.058333333333333334)],[1],[0],[0],[1.1131299170010607],['target'],subhangi,001,2025-09-22_21h11.08.667,visual search task 1,,2025.1.1,118.98735902427555,2025-09-22 21h11.17.687255 +0530,
120,0,120,[np.float64(-0.25277777777777777)],[np.float64(0.16666666666666666)],[1],[0],[0],[1.8494613750008284],['target'],120,0,120,0,243.96030279099796,,10,243.95032512499893,243.96030279099796,243.96030279099796,0.018044542004645336,245.7998388749984,[np.float64(-0.25277777777777777)],[np.float64(0.16666666666666666)],[1],[0],[0],[1.8494613750008284],['target'],subhangi,001,2025-09-22_21h11.08.667,visual search task 1,,2025.1.1,118.98735902427555,2025-09-22 21h11.17.687255 +0530,
121,0,121,[np.float64(0.11666666666666667)],[np.float64(0.19583333333333333)],[1],[0],[0],[1.2587524589980603],['target'],121,0,121,0,245.8152921660003,,5,245.80824754100468,245.8152921660003,245.8152921660003,0.008293207996757701,247.0670699580005,[np.float64(0.11666666666666667)],[np.float64(0.19583333333333333)],[1],[0],[0],[1.2587524589980603],['target'],subhangi,001,2025-09-22_21h11.08.667,visual search task 1,,2025.1.1,118.98735902427555,2025-09-22 21h11.17.687255 +0530,
122,0,122,[np.float64(-0.19444444444444445)],[np.float64(0.13333333333333333)],[1],[0],[0],[1.0300410839990946],['target'],122,0,122,0,247.0962860830041,,10,247.0856177500027,247.0962860830041,247.0962860830041,0.018430959004035685,248.11571283300145,[np.float64(-0.19444444444444445)],[np.float64(0.13333333333333333)],[1],[0],[0],[1.0300410839990946],['target'],subhangi,001,2025-09-22_21h11.08.667,visual search task 1,,2025.1.1,118.98735902427555,2025-09-22 21h11.17.687255 +0530,
123,0,123,[np.float64(-0.2263888888888889)],[np.float64(-0.39861111111111114)],[1],[0],[0],[1.5239542499984964],['target'],123,0,123,0,248.1333387909981,,5,248.12579299999925,248.1333387909981,248.1333387909981,0.009963875003450084,249.64979933300492,[np.float64(-0.2263888888888889)],[np.float64(-0.39861111111111114)],[1],[0],[0],[1.5239542499984964],['target'],subhangi,001,2025-09-22_21h11.08.667,visual search task 1,,2025.1.1,118.98735902427555,2025-09-22 21h11.17.687255 +0530,
124,0,124,[np.float64(0.08888888888888889)],[np.float64(-0.42777777777777776)],[1],[0],[0],[1.6978117500038934],['target'],124,0,124,0,249.67815387500013,,10,249.6682062079999,249.67815387500013,249.67815387500013,0.018299541996384505,251.36606658300298,[np.float64(0.08888888888888889)],[np.float64(-0.42777777777777776)],[1],[0],[0],[1.6978117500038934],['target'],subhangi,001,2025-09-22_21h11.08.667,visual search task 1,,2025.1.1,118.98735902427555,2025-09-22 21h11.17.687255 +0530,
125,0,125,[np.float64(-0.10416666666666667)],[np.float64(0.16666666666666666)],[1],[0],[0],[1.2332097079997766],['target'],125,0,125,0,251.3925567910046,,10,251.38253579100274,251.3925567910046,251.3925567910046,0.01635454100323841,252.61579675000394,[np.float64(-0.10416666666666667)],[np.float64(0.16666666666666666)],[1],[0],[0],[1.2332097079997766],['target'],subhangi,001,2025-09-22_21h11.08.667,visual search task 1,,2025.1.1,118.98735902427555,2025-09-22 21h11.17.687255 +0530,
126,0,126,[np.float64(-0.18611111111111112)],[np.float64(-0.225)],[1],[0],[0],[1.2919942079970497],['target'],126,0,126,0,252.63210337499913,,5,252.6244985000012,252.63210337499913,252.63210337499913,0.0085875830045552,253.91657170800318,[np.float64(-0.18611111111111112)],[np.float64(-0.225)],[1],[0],[0],[1.2919942079970497],['target'],subhangi,001,2025-09-22_21h11.08.667,visual search task 1,,2025.1.1,118.98735902427555,2025-09-22 21h11.17.687255 +0530,
127,0,127,[np.float64(-0.08888888888888889)],[np.float64(-0.11388888888888889)],[1],[0],[0],[1.005599041993264],['target'],127,0,127,0,253.93555016600294,,5,253.9271141249992,253.93555016600294,253.93555016600294,0.010397833000752144,254.9327817500016,[np.float64(-0.08888888888888889)],[np.float64(-0.11388888888888889)],[1],[0],[0],[1.005599041993264],['target'],subhangi,001,2025-09-22_21h11.08.667,visual search task 1,,2025.1.1,118.98735902427555,2025-09-22 21h11.17.687255 +0530,
128,0,128,[np.float64(-0.12083333333333333)],[np.float64(0.034722222222222224)],[1],[0],[0],[1.0575954999949317],['target'],128,0,128,0,254.95020966599986,,5,254.94231825000315,254.95020966599986,254.95020966599986,0.009436084001208656,255.99996166599885,[np.float64(-0.12083333333333333)],[np.float64(0.034722222222222224)],[1],[0],[0],[1.0575954999949317],['target'],subhangi,001,2025-09-22_21h11.08.667,visual search task 1,,2025.1.1,118.98735902427555,2025-09-22 21h11.17.687255 +0530,
129,0,129,[np.float64(-0.375)],[np.float64(0.07361111111111111)],[1],[0],[0],[1.1403707499994198],['target'],129,0,129,0,256.0177476250028,,5,256.00990041600016,256.0177476250028,256.0177476250028,0.009838583995588124,257.15036158300063,[np.float64(-0.375)],[np.float64(0.07361111111111111)],[1],[0],[0],[1.1403707499994198],['target'],subhangi,001,2025-09-22_21h11.08.667,visual search task 1,,2025.1.1,118.98735902427555,2025-09-22 21h11.17.687255 +0530,
130,0,130,[np.float64(0.4861111111111111)],[np.float64(-0.05555555555555555)],[1],[0],[0],[2.2071090000026743],['target'],130,0,130,0,257.16763041599916,,5,257.1600618750017,257.16763041599916,257.16763041599916,0.00958645900391275,259.36723241599975,[np.float64(0.4861111111111111)],[np.float64(-0.05555555555555555)],[1],[0],[0],[2.2071090000026743],['target'],subhangi,001,2025-09-22_21h11.08.667,visual search task 1,,2025.1.1,118.98735902427555,2025-09-22 21h11.17.687255 +0530,
131,0,131,[np.float64(0.39444444444444443)],[np.float64(-0.4638888888888889)],[1],[0],[0],[1.8888710419996642],['target'],131,0,131,0,259.38636820800457,,5,259.37815558299917,259.38636820800457,259.38636820800457,0.0108159160008654,261.26708258299914,[np.float64(0.39444444444444443)],[np.float64(-0.4638888888888889)],[1],[0],[0],[1.8888710419996642],['target'],subhangi,001,2025-09-22_21h11.08.667,visual search task 1,,2025.1.1,118.98735902427555,2025-09-22 21h11.17.687255 +0530,
132,0,132,[np.float64(0.18055555555555555)],[np.float64(0.24583333333333332)],[1],[0],[0],[2.697060375001456],['target'],132,0,132,0,261.29585045800195,,10,261.2853836659997,261.29585045800195,261.29585045800195,0.018194292002590373,263.9824925830035,[np.float64(0.18055555555555555)],[np.float64(0.24583333333333332)],[1],[0],[0],[2.697060375001456],['target'],subhangi,001,2025-09-22_21h11.08.667,visual search task 1,,2025.1.1,118.98735902427555,2025-09-22 21h11.17.687255 +0530,
133,0,133,[np.float64(0.32222222222222224)],[np.float64(-0.31527777777777777)],[1],[0],[0],[2.336073042002681],['target'],133,0,133,0,264.00757375000103,,10,263.99785316600173,264.00757375000103,264.00757375000103,0.015252832999976818,266.3339777910005,[np.float64(0.32222222222222224)],[np.float64(-0.31527777777777777)],[1],[0],[0],[2.336073042002681],['target'],subhangi,001,2025-09-22_21h11.08.667,visual search task 1,,2025.1.1,118.98735902427555,2025-09-22 21h11.17.687255 +0530,
134,0,134,[np.float64(-0.08611111111111111)],[np.float64(0.49583333333333335)],[1],[0],[0],[1.3573932500003139],['target'],134,0,134,0,266.34989925000264,,5,266.34252916600235,266.34989925000264,266.34989925000264,0.008442167003522627,267.69997975000297,[np.float64(-0.08611111111111111)],[np.float64(0.49583333333333335)],[1],[0],[0],[1.3573932500003139],['target'],subhangi,001,2025-09-22_21h11.08.667,visual search task 1,,2025.1.1,118.98735902427555,2025-09-22 21h11.17.687255 +0530,
135,0,135,"[np.float64(0.3), np.float64(0.33611111111111114)]","[np.float64(-0.06388888888888888), np.float64(-0.06527777777777778)]","[1, 1]","[0, 0]","[0, 0]","[3.4425440000050003, 4.225261917003081]","[None, 'target']",135,0,135,0,267.7171637499996,,5,267.7093096250028,267.7171637499996,267.7171637499996,0.009218416998919565,271.93464770800347,"[np.float64(0.3), np.float64(0.33611111111111114)]","[np.float64(-0.06388888888888888), np.float64(-0.06527777777777778)]","[1, 1]","[0, 0]","[0, 0]","[3.4425440000050003, 4.225261917003081]","[None, 'target']",subhangi,001,2025-09-22_21h11.08.667,visual search task 1,,2025.1.1,118.98735902427555,2025-09-22 21h11.17.687255 +0530,
136,0,136,[np.float64(-0.13333333333333333)],[np.float64(0.03333333333333333)],[1],[0],[0],[1.272398291999707],['target'],136,0,136,0,271.9551370830013,,5,271.946390582998,271.9551370830013,271.9551370830013,0.011594958996283822,273.21887387500465,[np.float64(-0.13333333333333333)],[np.float64(0.03333333333333333)],[1],[0],[0],[1.272398291999707],['target'],subhangi,001,2025-09-22_21h11.08.667,visual search task 1,,2025.1.1,118.98735902427555,2025-09-22 21h11.17.687255 +0530,
137,0,137,[np.float64(0.09305555555555556)],[np.float64(-0.48194444444444445)],[1],[0],[0],[1.5026023329992313],['target'],137,0,137,0,273.2400037080006,,5,273.2309809580038,273.2400037080006,273.2400037080006,0.011964999997871928,274.7336478750003,[np.float64(0.09305555555555556)],[np.float64(-0.48194444444444445)],[1],[0],[0],[1.5026023329992313],['target'],subhangi,001,2025-09-22_21h11.08.667,visual search task 1,,2025.1.1,118.98735902427555,2025-09-22 21h11.17.687255 +0530,
138,0,138,[np.float64(0.06111111111111111)],[np.float64(0.38055555555555554)],[1],[0],[0],[1.8571069159952458],['target'],138,0,138,0,274.7521323750043,,5,274.7438585830023,274.7521323750043,274.7521323750043,0.010103083004651126,276.60102425000514,[np.float64(0.06111111111111111)],[np.float64(0.38055555555555554)],[1],[0],[0],[1.8571069159952458],['target'],subhangi,001,2025-09-22_21h11.08.667,visual search task 1,,2025.1.1,118.98735902427555,2025-09-22 21h11.17.687255 +0530,
139,0,139,[np.float64(-0.46944444444444444)],[np.float64(0.44305555555555554)],[1],[0],[0],[1.9232971669989638],['target'],139,0,139,0,276.6182991250025,,5,276.61089720800373,276.6182991250025,276.6182991250025,0.009763166999618988,278.5342630000014,[np.float64(-0.46944444444444444)],[np.float64(0.44305555555555554)],[1],[0],[0],[1.9232971669989638],['target'],subhangi,001,2025-09-22_21h11.08.667,visual search task 1,,2025.1.1,118.98735902427555,2025-09-22 21h11.17.687255 +0530,
140,0,140,[np.float64(-0.36666666666666664)],[np.float64(0.3263888888888889)],[1],[0],[0],[1.038720332995581],['target'],140,0,140,0,278.55323691599915,,5,278.5451629160016,278.55323691599915,278.55323691599915,0.010776999995869119,279.5839407500025,[np.float64(-0.36666666666666664)],[np.float64(0.3263888888888889)],[1],[0],[0],[1.038720332995581],['target'],subhangi,001,2025-09-22_21h11.08.667,visual search task 1,,2025.1.1,118.98735902427555,2025-09-22 21h11.17.687255 +0530,
141,0,141,[np.float64(-0.09444444444444444)],[np.float64(-0.09166666666666666)],[1],[0],[0],[1.3737016250015586],['target'],141,0,141,0,279.6022103330033,,5,279.5944505000007,279.6022103330033,279.6022103330033,0.010401374995126389,280.96821858300245,[np.float64(-0.09444444444444444)],[np.float64(-0.09166666666666666)],[1],[0],[0],[1.3737016250015586],['target'],subhangi,001,2025-09-22_21h11.08.667,visual search task 1,,2025.1.1,118.98735902427555,2025-09-22 21h11.17.687255 +0530,
142,0,142,[np.float64(0.0375)],[np.float64(-0.03611111111111111)],[1],[0],[0],[1.3938089170042076],['target'],142,0,142,0,281.00073566599895,,10,280.98923595800443,281.00073566599895,281.00073566599895,0.020902124997519422,282.3830950410047,[np.float64(0.0375)],[np.float64(-0.03611111111111111)],[1],[0],[0],[1.3938089170042076],['target'],subhangi,001,2025-09-22_21h11.08.667,visual search task 1,,2025.1.1,118.98735902427555,2025-09-22 21h11.17.687255 +0530,
143,0,143,[np.float64(-0.1361111111111111)],[np.float64(0.19583333333333333)],[1],[0],[0],[1.3831849999987753],['target'],143,0,143,0,282.41006133300107,,10,282.4004645000023,282.41006133300107,282.41006133300107,0.01724554199608974,283.78370295800414,[np.float64(-0.1361111111111111)],[np.float64(0.19583333333333333)],[1],[0],[0],[1.3831849999987753],['target'],subhangi,001,2025-09-22_21h11.08.667,visual search task 1,,2025.1.1,118.98735902427555,2025-09-22 21h11.17.687255 +0530,
144,0,144,[np.float64(0.35694444444444445)],[np.float64(0.42083333333333334)],[1],[0],[0],[1.0760205830010818],['target'],144,0,144,0,283.80001329100196,,5,283.79240658300114,283.80001329100196,283.80001329100196,0.008594583996455185,284.86851549999847,[np.float64(0.35694444444444445)],[np.float64(0.42083333333333334)],[1],[0],[0],[1.0760205830010818],['target'],subhangi,001,2025-09-22_21h11.08.667,visual search task 1,,2025.1.1,118.98735902427555,2025-09-22 21h11.17.687255 +0530,
145,0,145,[np.float64(-0.44166666666666665)],[np.float64(-0.19583333333333333)],[1],[0],[0],[1.7384100000053877],['target'],145,0,145,0,284.88698045800265,,5,284.8785776250006,284.88698045800265,284.88698045800265,0.009954374996596016,286.6170487499985,[np.float64(-0.44166666666666665)],[np.float64(-0.19583333333333333)],[1],[0],[0],[1.7384100000053877],['target'],subhangi,001,2025-09-22_21h11.08.667,visual search task 1,,2025.1.1,118.98735902427555,2025-09-22 21h11.17.687255 +0530,
146,0,146,[np.float64(0.29583333333333334)],[np.float64(-0.1638888888888889)],[1],[0],[0],[2.0314663750032196],['target'],146,0,146,0,286.6460083749989,,10,286.63545266599976,286.6460083749989,286.6460083749989,0.01829212500160793,288.66696879100346,[np.float64(0.29583333333333334)],[np.float64(-0.1638888888888889)],[1],[0],[0],[2.0314663750032196],['target'],subhangi,001,2025-09-22_21h11.08.667,visual search task 1,,2025.1.1,118.98735902427555,2025-09-22 21h11.17.687255 +0530,
147,0,147,[np.float64(-0.23055555555555557)],[np.float64(-0.1597222222222222)],[1],[0],[0],[1.1501025000034133],['target'],147,0,147,0,288.69279516600363,,10,288.6833142500036,288.69279516600363,288.69279516600363,0.016217750002397224,289.83346291600174,[np.float64(-0.23055555555555557)],[np.float64(-0.1597222222222222)],[1],[0],[0],[1.1501025000034133],['target'],subhangi,001,2025-09-22_21h11.08.667,visual search task 1,,2025.1.1,118.98735902427555,2025-09-22 21h11.17.687255 +0530,
148,0,148,[np.float64(-0.30694444444444446)],[np.float64(0.48194444444444445)],[1],[0],[0],[3.052096375002293],['target'],148,0,148,0,289.8577198330022,,10,289.8482579160045,289.8577198330022,289.8577198330022,0.014696332997118589,292.900399916005,[np.float64(-0.30694444444444446)],[np.float64(0.48194444444444445)],[1],[0],[0],[3.052096375002293],['target'],subhangi,001,2025-09-22_21h11.08.667,visual search task 1,,2025.1.1,118.98735902427555,2025-09-22 21h11.17.687255 +0530,
149,0,149,[np.float64(-0.058333333333333334)],[np.float64(0.25972222222222224)],[1],[0],[0],[1.2753212500028894],['target'],149,0,149,0,292.91678454100474,,5,292.9093702500031,292.91678454100474,292.91678454100474,0.00886391599487979,294.18477274999896,[np.float64(-0.058333333333333334)],[np.float64(0.25972222222222224)],[1],[0],[0],[1.2753212500028894],['target'],subhangi,001,2025-09-22_21h11.08.667,visual search task 1,,2025.1.1,118.98735902427555,2025-09-22 21h11.17.687255 +0530,
150,0,150,[np.float64(0.46944444444444444)],[np.float64(-0.31666666666666665)],[1],[0],[0],[1.6891427920054412],['target'],150,0,150,0,294.2040011659992,,5,294.195266374998,294.2040011659992,294.2040011659992,0.010375500001828186,295.88447850000375,[np.float64(0.46944444444444444)],[np.float64(-0.31666666666666665)],[1],[0],[0],[1.6891427920054412],['target'],subhangi,001,2025-09-22_21h11.08.667,visual search task 1,,2025.1.1,118.98735902427555,2025-09-22 21h11.17.687255 +0530,
151,0,151,[np.float64(0.2569444444444444)],[np.float64(0.2861111111111111)],[1],[0],[0],[1.0222157079988392],['target'],151,0,151,0,295.9033074160034,,5,295.89513591599825,295.9033074160034,295.9033074160034,0.01053200000023935,296.91742279100436,[np.float64(0.2569444444444444)],[np.float64(0.2861111111111111)],[1],[0],[0],[1.0222157079988392],['target'],subhangi,001,2025-09-22_21h11.08.667,visual search task 1,,2025.1.1,118.98735902427555,2025-09-22 21h11.17.687255 +0530,
152,0,152,[np.float64(-0.20277777777777778)],[np.float64(-0.43194444444444446)],[1],[0],[0],[1.206833167001605],['target'],152,0,152,0,296.9359121660018,,5,296.9278390410036,296.9359121660018,296.9359121660018,0.010305874995538034,298.1347392079988,[np.float64(-0.20277777777777778)],[np.float64(-0.43194444444444446)],[1],[0],[0],[1.206833167001605],['target'],subhangi,001,2025-09-22_21h11.08.667,visual search task 1,,2025.1.1,118.98735902427555,2025-09-22 21h11.17.687255 +0530,
153,0,153,[np.float64(-0.3375)],[np.float64(0.059722222222222225)],[1],[0],[0],[1.0378067499987083],['target'],153,0,153,0,298.154478166005,,5,298.145947791003,298.154478166005,298.154478166005,0.011090667001553811,299.1838193750009,[np.float64(-0.3375)],[np.float64(0.059722222222222225)],[1],[0],[0],[1.0378067499987083],['target'],subhangi,001,2025-09-22_21h11.08.667,visual search task 1,,2025.1.1,118.98735902427555,2025-09-22 21h11.17.687255 +0530,
154,0,154,[np.float64(0.13194444444444445)],[np.float64(0.25555555555555554)],[1],[0],[0],[2.141032917003031],['target'],154,0,154,0,299.2013891660026,,5,299.19340591600485,299.2013891660026,299.2013891660026,0.009482875000685453,301.3344993330029,[np.float64(0.13194444444444445)],[np.float64(0.25555555555555554)],[1],[0],[0],[2.141032917003031],['target'],subhangi,001,2025-09-22_21h11.08.667,visual search task 1,,2025.1.1,118.98735902427555,2025-09-22 21h11.17.687255 +0530,
155,0,155,[np.float64(-0.29305555555555557)],[np.float64(0.12777777777777777)],[1],[0],[0],[1.0233121659985045],['target'],155,0,155,0,301.35248225000396,,5,301.3448666250042,301.35248225000396,301.35248225000396,0.010253084001305979,302.3682440830016,[np.float64(-0.29305555555555557)],[np.float64(0.12777777777777777)],[1],[0],[0],[1.0233121659985045],['target'],subhangi,001,2025-09-22_21h11.08.667,visual search task 1,,2025.1.1,118.98735902427555,2025-09-22 21h11.17.687255 +0530,
156,0,156,[np.float64(-0.3111111111111111)],[np.float64(0.175)],[1],[0],[0],[0.7382702499962761],['target'],156,0,156,0,302.38799783300055,,5,302.3793077500013,302.38799783300055,302.38799783300055,0.010945875001198146,303.1176430830019,[np.float64(-0.3111111111111111)],[np.float64(0.175)],[1],[0],[0],[0.7382702499962761],['target'],subhangi,001,2025-09-22_21h11.08.667,visual search task 1,,2025.1.1,118.98735902427555,2025-09-22 21h11.17.687255 +0530,
157,0,157,[np.float64(0.22916666666666666)],[np.float64(-0.4652777777777778)],[1],[0],[0],[2.006020583998179],['target'],157,0,157,0,303.1363295830015,,5,303.1287762080028,303.1363295830015,303.1363295830015,0.011004874999343883,305.1348522910048,[np.float64(0.22916666666666666)],[np.float64(-0.4652777777777778)],[1],[0],[0],[2.006020583998179],['target'],subhangi,001,2025-09-22_21h11.08.667,visual search task 1,,2025.1.1,118.98735902427555,2025-09-22 21h11.17.687255 +0530,
158,0,158,[np.float64(-0.027777777777777776)],[np.float64(-0.05138888888888889)],[1],[0],[0],[2.264977667000494],['target'],158,0,158,0,305.16160637500434,,10,305.15206708299957,305.16160637500434,305.16160637500434,0.01712295800098218,307.4170921250043,[np.float64(-0.027777777777777776)],[np.float64(-0.05138888888888889)],[1],[0],[0],[2.264977667000494],['target'],subhangi,001,2025-09-22_21h11.08.667,visual search task 1,,2025.1.1,118.98735902427555,2025-09-22 21h11.17.687255 +0530,
159,0,159,[np.float64(-0.4444444444444444)],[np.float64(-0.3375)],[1],[0],[0],[1.2597862080001505],['target'],159,0,159,0,307.4324014580052,,5,307.4251502910047,307.4324014580052,307.4324014580052,0.007949708997330163,308.6850035000025,[np.float64(-0.4444444444444444)],[np.float64(-0.3375)],[1],[0],[0],[1.2597862080001505],['target'],subhangi,001,2025-09-22_21h11.08.667,visual search task 1,,2025.1.1,118.98735902427555,2025-09-22 21h11.17.687255 +0530,
160,0,160,[np.float64(0.4708333333333333)],[np.float64(0.09444444444444444)],[1],[0],[0],[2.429953667000518],['target'],160,0,160,0,308.7143601249991,,10,308.7038821660026,308.7143601249991,308.7143601249991,0.01876633399660932,311.13388004100125,[np.float64(0.4708333333333333)],[np.float64(0.09444444444444444)],[1],[0],[0],[2.429953667000518],['target'],subhangi,001,2025-09-22_21h11.08.667,visual search task 1,,2025.1.1,118.98735902427555,2025-09-22 21h11.17.687255 +0530,
161,0,161,[np.float64(-0.24444444444444444)],[np.float64(0.37916666666666665)],[1],[0],[0],[1.4275242500007153],['target'],161,0,161,0,311.14898650000396,,5,311.1416829580048,311.14898650000396,311.14898650000396,0.007699624999077059,312.56928683300066,[np.float64(-0.24444444444444444)],[np.float64(0.37916666666666665)],[1],[0],[0],[1.4275242500007153],['target'],subhangi,001,2025-09-22_21h11.08.667,visual search task 1,,2025.1.1,118.98735902427555,2025-09-22 21h11.17.687255 +0530,
162,0,162,[np.float64(0.18055555555555555)],[np.float64(-0.3597222222222222)],[1],[0],[0],[1.5215608750004321],['target'],162,0,162,0,312.5880943750017,,5,312.5802037079993,312.5880943750017,312.5880943750017,0.010793082998134196,314.1018338330032,[np.float64(0.18055555555555555)],[np.float64(-0.3597222222222222)],[1],[0],[0],[1.5215608750004321],['target'],subhangi,001,2025-09-22_21h11.08.667,visual search task 1,,2025.1.1,118.98735902427555,2025-09-22 21h11.17.687255 +0530,
163,0,163,[np.float64(-0.225)],[np.float64(0.45416666666666666)],[1],[0],[0],[2.630919916999119],['target'],163,0,163,0,314.1316663329999,,10,314.1210614160009,314.1316663329999,314.1316663329999,0.01910279200092191,316.752031875003,[np.float64(-0.225)],[np.float64(0.45416666666666666)],[1],[0],[0],[2.630919916999119],['target'],subhangi,001,2025-09-22_21h11.08.667,visual search task 1,,2025.1.1,118.98735902427555,2025-09-22 21h11.17.687255 +0530,
164,0,164,[np.float64(0.08888888888888889)],[np.float64(0.24444444444444444)],[1],[0],[0],[1.115736832995026],['target'],164,0,164,0,316.7782342499995,,10,316.7687003750034,316.7782342499995,316.7782342499995,0.01655133299937006,317.884482458001,[np.float64(0.08888888888888889)],[np.float64(0.24444444444444444)],[1],[0],[0],[1.115736832995026],['target'],subhangi,001,2025-09-22_21h11.08.667,visual search task 1,,2025.1.1,118.98735902427555,2025-09-22 21h11.17.687255 +0530,
165,0,165,[np.float64(-0.45694444444444443)],[np.float64(0.3125)],[1],[0],[0],[1.1182802920011454],['target'],165,0,165,0,317.909927916,,10,317.9001721250024,317.909927916,317.909927916,0.015583790998789482,319.0185043329984,[np.float64(-0.45694444444444443)],[np.float64(0.3125)],[1],[0],[0],[1.1182802920011454],['target'],subhangi,001,2025-09-22_21h11.08.667,visual search task 1,,2025.1.1,118.98735902427555,2025-09-22 21h11.17.687255 +0530,
166,0,166,[np.float64(0.3888888888888889)],[np.float64(-0.3375)],[1],[0],[0],[1.2588747080008034],['target'],166,0,166,0,319.0350498330008,,5,319.02720833299827,319.0350498330008,319.0350498330008,0.008595792001869995,320.2861520000006,[np.float64(0.3888888888888889)],[np.float64(-0.3375)],[1],[0],[0],[1.2588747080008034],['target'],subhangi,001,2025-09-22_21h11.08.667,visual search task 1,,2025.1.1,118.98735902427555,2025-09-22 21h11.17.687255 +0530,
167,0,167,[np.float64(0.11388888888888889)],[np.float64(0.425)],[1],[0],[0],[1.6299012919989764],['target'],167,0,167,0,320.3136047080043,,10,320.30369179099944,320.3136047080043,320.3136047080043,0.017426041995349806,321.9336405830036,[np.float64(0.11388888888888889)],[np.float64(0.425)],[1],[0],[0],[1.6299012919989764],['target'],subhangi,001,2025-09-22_21h11.08.667,visual search task 1,,2025.1.1,118.98735902427555,2025-09-22 21h11.17.687255 +0530,
168,0,168,[np.float64(-0.1597222222222222)],[np.float64(0.42777777777777776)],[1],[0],[0],[1.3428889159986284],['target'],168,0,168,0,321.95020466599817,,5,321.9423915830048,321.95020466599817,321.95020466599817,0.00863483300054213,323.2853357499989,[np.float64(-0.1597222222222222)],[np.float64(0.42777777777777776)],[1],[0],[0],[1.3428889159986284],['target'],subhangi,001,2025-09-22_21h11.08.667,visual search task 1,,2025.1.1,118.98735902427555,2025-09-22 21h11.17.687255 +0530,
169,0,169,[np.float64(0.2833333333333333)],[np.float64(-0.4027777777777778)],[1],[0],[0],[2.4639144169996143],['target'],169,0,169,0,323.3139243750047,,10,323.3038727500025,323.3139243750047,323.3139243750047,0.01842683400172973,325.7678397080017,[np.float64(0.2833333333333333)],[np.float64(-0.4027777777777778)],[1],[0],[0],[2.4639144169996143],['target'],subhangi,001,2025-09-22_21h11.08.667,visual search task 1,,2025.1.1,118.98735902427555,2025-09-22 21h11.17.687255 +0530,
170,0,170,[np.float64(-0.006944444444444444)],[np.float64(-0.22083333333333333)],[1],[0],[0],[1.6336995839956217],['target'],170,0,170,0,325.7939388750019,,10,325.7842666659999,325.7939388750019,325.7939388750019,0.016309709004417527,327.41801295799814,[np.float64(-0.006944444444444444)],[np.float64(-0.22083333333333333)],[1],[0],[0],[1.6336995839956217],['target'],subhangi,001,2025-09-22_21h11.08.667,visual search task 1,,2025.1.1,118.98735902427555,2025-09-22 21h11.17.687255 +0530,
171,0,171,[np.float64(-0.2833333333333333)],[np.float64(0.44583333333333336)],[1],[0],[0],[1.1943105840036878],['target'],171,0,171,0,327.43391008300387,,5,327.4257441660011,327.43391008300387,327.43391008300387,0.0076213339998503216,328.62012108300405,[np.float64(-0.2833333333333333)],[np.float64(0.44583333333333336)],[1],[0],[0],[1.1943105840036878],['target'],subhangi,001,2025-09-22_21h11.08.667,visual search task 1,,2025.1.1,118.98735902427555,2025-09-22 21h11.17.687255 +0530,
172,0,172,[np.float64(-0.043055555555555555)],[np.float64(0.2986111111111111)],[1],[0],[0],[1.3113600839933497],['target'],172,0,172,0,328.6494194160041,,10,328.6392255410028,328.6494194160041,328.6494194160041,0.01898454100592062,329.95063520799886,[np.float64(-0.043055555555555555)],[np.float64(0.2986111111111111)],[1],[0],[0],[1.3113600839933497],['target'],subhangi,001,2025-09-22_21h11.08.667,visual search task 1,,2025.1.1,118.98735902427555,2025-09-22 21h11.17.687255 +0530,
173,0,173,[np.float64(0.06388888888888888)],[np.float64(0.11527777777777778)],[1],[0],[0],[1.4692582920033601],['target'],173,0,173,0,329.976461708,,10,329.9660057910005,329.976461708,329.976461708,0.015259250001690816,331.43531679100124,[np.float64(0.06388888888888888)],[np.float64(0.11527777777777778)],[1],[0],[0],[1.4692582920033601],['target'],subhangi,001,2025-09-22_21h11.08.667,visual search task 1,,2025.1.1,118.98735902427555,2025-09-22 21h11.17.687255 +0530,
174,0,174,[np.float64(0.3763888888888889)],[np.float64(-0.4638888888888889)],[1],[0],[0],[1.6079449169992586],['target'],174,0,174,0,331.4525397500038,,5,331.4450154580045,331.4525397500038,331.4525397500038,0.009583792001649272,333.0530407080005,[np.float64(0.3763888888888889)],[np.float64(-0.4638888888888889)],[1],[0],[0],[1.6079449169992586],['target'],subhangi,001,2025-09-22_21h11.08.667,visual search task 1,,2025.1.1,118.98735902427555,2025-09-22 21h11.17.687255 +0530,
175,0,175,[np.float64(-0.4083333333333333)],[np.float64(-0.3541666666666667)],[1],[0],[0],[1.443235332997574],['target'],175,0,175,0,333.0873454160028,,10,333.075854540999,333.0873454160028,333.0873454160028,0.022673708997899666,334.5191387080049,[np.float64(-0.4083333333333333)],[np.float64(-0.3541666666666667)],[1],[0],[0],[1.443235332997574],['target'],subhangi,001,2025-09-22_21h11.08.667,visual search task 1,,2025.1.1,118.98735902427555,2025-09-22 21h11.17.687255 +0530,
176,0,176,[np.float64(-0.27361111111111114)],[np.float64(-0.35694444444444445)],[1],[0],[0],[1.4072641660022782],['target'],176,0,176,0,334.5348694159984,,5,334.52772650000406,334.5348694159984,334.5348694159984,0.008479000003717374,335.9350602909981,[np.float64(-0.27361111111111114)],[np.float64(-0.35694444444444445)],[1],[0],[0],[1.4072641660022782],['target'],subhangi,001,2025-09-22_21h11.08.667,visual search task 1,,2025.1.1,118.98735902427555,2025-09-22 21h11.17.687255 +0530,
177,0,177,[np.float64(0.002777777777777778)],[np.float64(0.016666666666666666)],[1],[0],[0],[2.4640660419972846],['target'],177,0,177,0,335.96493850000115,,10,335.9545304159983,335.96493850000115,335.96493850000115,0.019358916993951425,338.41864229099883,[np.float64(0.002777777777777778)],[np.float64(0.016666666666666666)],[1],[0],[0],[2.4640660419972846],['target'],subhangi,001,2025-09-22_21h11.08.667,visual search task 1,,2025.1.1,118.98735902427555,2025-09-22 21h11.17.687255 +0530,
178,0,178,[np.float64(-0.29583333333333334)],[np.float64(-0.4111111111111111)],[1],[0],[0],[2.3182910840041586],['target'],178,0,178,0,338.4438672500037,,10,338.4340441250024,338.4438672500037,338.4438672500037,0.015294499993615318,340.7523871250014,[np.float64(-0.29583333333333334)],[np.float64(-0.4111111111111111)],[1],[0],[0],[2.3182910840041586],['target'],subhangi,001,2025-09-22_21h11.08.667,visual search task 1,,2025.1.1,118.98735902427555,2025-09-22 21h11.17.687255 +0530,
179,0,179,[np.float64(-0.0125)],[np.float64(-0.14583333333333334)],[1],[0],[0],[1.558152625002549],['target'],179,0,179,0,340.76915470800304,,5,340.76112520800234,340.76915470800304,340.76915470800304,0.008620458000223152,342.3193408750012,[np.float64(-0.0125)],[np.float64(-0.14583333333333334)],[1],[0],[0],[1.558152625002549],['target'],subhangi,001,2025-09-22_21h11.08.667,visual search task 1,,2025.1.1,118.98735902427555,2025-09-22 21h11.17.687255 +0530,
180,0,180,[np.float64(-0.30833333333333335)],[np.float64(0.25972222222222224)],[1],[0],[0],[1.414266250001674],['target'],180,0,180,0,342.35109683300107,,10,342.3383924160007,342.35109683300107,342.35109683300107,0.018927249999251217,343.75270866600476,[np.float64(-0.30833333333333335)],[np.float64(0.25972222222222224)],[1],[0],[0],[1.414266250001674],['target'],subhangi,001,2025-09-22_21h11.08.667,visual search task 1,,2025.1.1,118.98735902427555,2025-09-22 21h11.17.687255 +0530,
181,0,181,[np.float64(0.08611111111111111)],[np.float64(-0.46944444444444444)],[1],[0],[0],[2.756018583000696],['target'],181,0,181,0,343.77066433300206,,5,343.7627984999999,343.77066433300206,343.77066433300206,0.009976624998671468,346.5188790829998,[np.float64(0.08611111111111111)],[np.float64(-0.46944444444444444)],[1],[0],[0],[2.756018583000696],['target'],subhangi,001,2025-09-22_21h11.08.667,visual search task 1,,2025.1.1,118.98735902427555,2025-09-22 21h11.17.687255 +0530,
182,0,182,[np.float64(-0.06944444444444445)],[np.float64(-0.3347222222222222)],[1],[0],[0],[1.8981446670004516],['target'],182,0,182,0,346.54664654099906,,10,346.5369189999983,346.54664654099906,346.54664654099906,0.017928291999851353,348.43511308300367,[np.float64(-0.06944444444444445)],[np.float64(-0.3347222222222222)],[1],[0],[0],[1.8981446670004516],['target'],subhangi,001,2025-09-22_21h11.08.667,visual search task 1,,2025.1.1,118.98735902427555,2025-09-22 21h11.17.687255 +0530,
183,0,183,[np.float64(0.05694444444444444)],[np.float64(-0.4097222222222222)],[1],[0],[0],[1.194053042003361],['target'],183,0,183,0,348.4513135410016,,5,348.44393287500134,348.4513135410016,348.4513135410016,0.008712540999113116,349.638059375,[np.float64(0.05694444444444444)],[np.float64(-0.4097222222222222)],[1],[0],[0],[1.194053042003361],['target'],subhangi,001,2025-09-22_21h11.08.667,visual search task 1,,2025.1.1,118.98735902427555,2025-09-22 21h11.17.687255 +0530,
184,0,184,[np.float64(-0.3958333333333333)],[np.float64(-0.11527777777777778)],[1],[0],[0],[1.2097937910002656],['target'],184,0,184,0,349.6701515829991,,10,349.6590152909994,349.6701515829991,349.6701515829991,0.020831791996897664,350.8688526660044,[np.float64(-0.3958333333333333)],[np.float64(-0.11527777777777778)],[1],[0],[0],[1.2097937910002656],['target'],subhangi,001,2025-09-22_21h11.08.667,visual search task 1,,2025.1.1,118.98735902427555,2025-09-22 21h11.17.687255 +0530,
185,0,185,[np.float64(-0.35138888888888886)],[np.float64(-0.18888888888888888)],[1],[0],[0],[0.9260766250008601],['target'],185,0,185,0,350.8845163750011,,5,350.87678579099884,350.8845163750011,350.8845163750011,0.007827916997484863,351.8029277079986,[np.float64(-0.35138888888888886)],[np.float64(-0.18888888888888888)],[1],[0],[0],[0.9260766250008601],['target'],subhangi,001,2025-09-22_21h11.08.667,visual search task 1,,2025.1.1,118.98735902427555,2025-09-22 21h11.17.687255 +0530,
186,0,186,"[np.float64(-0.4125), np.float64(-0.4041666666666667)]","[np.float64(0.0125), np.float64(-0.020833333333333332)]","[1, 1]","[0, 0]","[0, 0]","[0.8789806659988244, 1.446679332999338]","[None, 'target']",186,0,186,0,351.8330766660001,,10,351.82232262500474,351.8330766660001,351.8330766660001,0.019273749996500555,353.26904758300225,"[np.float64(-0.4125), np.float64(-0.4041666666666667)]","[np.float64(0.0125), np.float64(-0.020833333333333332)]","[1, 1]","[0, 0]","[0, 0]","[0.8789806659988244, 1.446679332999338]","[None, 'target']",subhangi,001,2025-09-22_21h11.08.667,visual search task 1,,2025.1.1,118.98735902427555,2025-09-22 21h11.17.687255 +0530,
187,0,187,[np.float64(-0.3055555555555556)],[np.float64(0.06388888888888888)],[1],[0],[0],[1.0188573339983122],['target'],187,0,187,0,353.29428120800003,,10,353.2848514159996,353.29428120800003,353.29428120800003,0.01568045800377149,354.30376487500325,[np.float64(-0.3055555555555556)],[np.float64(0.06388888888888888)],[1],[0],[0],[1.0188573339983122],['target'],subhangi,001,2025-09-22_21h11.08.667,visual search task 1,,2025.1.1,118.98735902427555,2025-09-22 21h11.17.687255 +0530,
188,0,188,[np.float64(0.4847222222222222)],[np.float64(-0.4027777777777778)],[1],[0],[0],[1.8013969579988043],['target'],188,0,188,0,354.3279267079997,,10,354.31857166600093,354.3279267079997,354.3279267079997,0.014701915999467019,356.1200363750031,[np.float64(0.4847222222222222)],[np.float64(-0.4027777777777778)],[1],[0],[0],[1.8013969579988043],['target'],subhangi,001,2025-09-22_21h11.08.667,visual search task 1,,2025.1.1,118.98735902427555,2025-09-22 21h11.17.687255 +0530,
189,0,189,[np.float64(-0.20694444444444443)],[np.float64(-0.37083333333333335)],[1],[0],[0],[2.200169832998654],['target'],189,0,189,0,356.1459639579989,,10,356.1363923329991,356.1459639579989,356.1459639579989,0.016229417000431567,358.33660904099816,[np.float64(-0.20694444444444443)],[np.float64(-0.37083333333333335)],[1],[0],[0],[2.200169832998654],['target'],subhangi,001,2025-09-22_21h11.08.667,visual search task 1,,2025.1.1,118.98735902427555,2025-09-22 21h11.17.687255 +0530,
190,0,190,"[np.float64(-0.28055555555555556), np.float64(-0.2777777777777778), np.float64(0.13472222222222222)]","[np.float64(-0.4083333333333333), np.float64(-0.43333333333333335), np.float64(0.0375)]","[1, 1, 1]","[0, 0, 0]","[0, 0, 0]","[1.3357155839985353, 1.934207708996837, 3.1833217090024846]","[None, None, 'target']",190,0,190,0,358.3614447910004,,10,358.3515217910026,358.3614447910004,358.3614447910004,0.014808333005930763,361.53489595800056,"[np.float64(-0.28055555555555556), np.float64(-0.2777777777777778), np.float64(0.13472222222222222)]","[np.float64(-0.4083333333333333), np.float64(-0.43333333333333335), np.float64(0.0375)]","[1, 1, 1]","[0, 0, 0]","[0, 0, 0]","[1.3357155839985353, 1.934207708996837, 3.1833217090024846]","[None, None, 'target']",subhangi,001,2025-09-22_21h11.08.667,visual search task 1,,2025.1.1,118.98735902427555,2025-09-22 21h11.17.687255 +0530,
191,0,191,[np.float64(0.18055555555555555)],[np.float64(0.0)],[1],[0],[0],[1.0189473329955945],['target'],191,0,191,0,361.56132858300407,,10,361.55150649999996,361.56132858300407,361.56132858300407,0.016455500001029577,362.57050416600396,[np.float64(0.18055555555555555)],[np.float64(0.0)],[1],[0],[0],[1.0189473329955945],['target'],subhangi,001,2025-09-22_21h11.08.667,visual search task 1,,2025.1.1,118.98735902427555,2025-09-22 21h11.17.687255 +0530,
192,0,192,[np.float64(-0.2875)],[np.float64(-0.25833333333333336)],[1],[0],[0],[1.8072261249981239],['target'],192,0,192,0,362.58666979100235,,5,362.5790484160025,362.58666979100235,362.58666979100235,0.008437249998678453,364.38637429100345,[np.float64(-0.2875)],[np.float64(-0.25833333333333336)],[1],[0],[0],[1.8072261249981239],['target'],subhangi,001,2025-09-22_21h11.08.667,visual search task 1,,2025.1.1,118.98735902427555,2025-09-22 21h11.17.687255 +0530,
193,0,193,[np.float64(-0.08194444444444444)],[np.float64(0.3416666666666667)],[1],[0],[0],[1.2461362079993705],['target'],193,0,193,0,364.41548670799966,,10,364.4054368750003,364.41548670799966,364.41548670799966,0.018930874997749925,365.6516257080002,[np.float64(-0.08194444444444444)],[np.float64(0.3416666666666667)],[1],[0],[0],[1.2461362079993705],['target'],subhangi,001,2025-09-22_21h11.08.667,visual search task 1,,2025.1.1,118.98735902427555,2025-09-22 21h11.17.687255 +0530,
194,0,194,[np.float64(0.3347222222222222)],[np.float64(0.4486111111111111)],[1],[0],[0],[2.1765164169992204],['target'],194,0,194,0,365.6669473330039,,5,365.6599097080034,365.6669473330039,365.6669473330039,0.008169000000634696,367.83648716600146,[np.float64(0.3347222222222222)],[np.float64(0.4486111111111111)],[1],[0],[0],[2.1765164169992204],['target'],subhangi,001,2025-09-22_21h11.08.667,visual search task 1,,2025.1.1,118.98735902427555,2025-09-22 21h11.17.687255 +0530,
195,0,195,"[np.float64(-0.14027777777777778), np.float64(-0.14305555555555555), np.float64(-0.24027777777777778)]","[np.float64(-0.49722222222222223), np.float64(-0.4791666666666667), np.float64(0.025)]","[1, 1, 1]","[0, 0, 0]","[0, 0, 0]","[3.929990042001009, 4.464157750000595, 5.764092042001721]","[None, None, 'target']",195,0,195,0,367.8658178330006,,10,367.85505329100124,367.8658178330006,367.8658178330006,0.018460208004398737,373.61919604099967,"[np.float64(-0.14027777777777778), np.float64(-0.14305555555555555), np.float64(-0.24027777777777778)]","[np.float64(-0.49722222222222223), np.float64(-0.4791666666666667), np.float64(0.025)]","[1, 1, 1]","[0, 0, 0]","[0, 0, 0]","[3.929990042001009, 4.464157750000595, 5.764092042001721]","[None, None, 'target']",subhangi,001,2025-09-22_21h11.08.667,visual search task 1,,2025.1.1,118.98735902427555,2025-09-22 21h11.17.687255 +0530,
196,0,196,[np.float64(0.03333333333333333)],[np.float64(0.09583333333333334)],[1],[0],[0],[1.3754665419983212],['target'],196,0,196,0,373.63501483300206,,5,373.627746457998,373.63501483300206,373.63501483300206,0.0083886669963249,375.00328179100325,[np.float64(0.03333333333333333)],[np.float64(0.09583333333333334)],[1],[0],[0],[1.3754665419983212],['target'],subhangi,001,2025-09-22_21h11.08.667,visual search task 1,,2025.1.1,118.98735902427555,2025-09-22 21h11.17.687255 +0530,
197,0,197,[np.float64(-0.009722222222222222)],[np.float64(0.18194444444444444)],[1],[0],[0],[1.2133443339989753],['target'],197,0,197,0,375.03314204100025,,10,375.02256737500284,375.03314204100025,375.03314204100025,0.019162541997502558,376.2359685830015,[np.float64(-0.009722222222222222)],[np.float64(0.18194444444444444)],[1],[0],[0],[1.2133443339989753],['target'],subhangi,001,2025-09-22_21h11.08.667,visual search task 1,,2025.1.1,118.98735902427555,2025-09-22 21h11.17.687255 +0530,
198,0,198,[np.float64(0.44027777777777777)],[np.float64(0.2763888888888889)],[1],[0],[0],[1.2014344170020195],['target'],198,0,198,0,376.2622657910033,,10,376.2528607080021,376.2622657910033,376.2622657910033,0.016776290998677723,377.4543448750046,[np.float64(0.44027777777777777)],[np.float64(0.2763888888888889)],[1],[0],[0],[1.2014344170020195],['target'],subhangi,001,2025-09-22_21h11.08.667,visual search task 1,,2025.1.1,118.98735902427555,2025-09-22 21h11.17.687255 +0530,
199,0,199,[np.float64(0.4236111111111111)],[np.float64(0.25555555555555554)],[1],[0],[0],[0.673521750002692],['target'],199,0,199,0,377.4707002080031,,5,377.46302041599847,377.4707002080031,377.4707002080031,0.008570749996579252,378.13661270800367,[np.float64(0.4236111111111111)],[np.float64(0.25555555555555554)],[1],[0],[0],[0.673521750002692],['target'],subhangi,001,2025-09-22_21h11.08.667,visual search task 1,,2025.1.1,118.98735902427555,2025-09-22 21h11.17.687255 +0530,
